time,header_stamp_secs,header_stamp_nsecs,header_frame_id,orientation_x,orientation_y,orientation_z,orientation_w,orientation_covariance_0,orientation_covariance_1,orientation_covariance_2,orientation_covariance_3,orientation_covariance_4,orientation_covariance_5,orientation_covariance_6,orientation_covariance_7,orientation_covariance_8,angular_velocity_x,angular_velocity_y,angular_velocity_z,angular_velocity_covariance_0,angular_velocity_covariance_1,angular_velocity_covariance_2,angular_velocity_covariance_3,angular_velocity_covariance_4,angular_velocity_covariance_5,angular_velocity_covariance_6,angular_velocity_covariance_7,angular_velocity_covariance_8,linear_acceleration_x,linear_acceleration_y,linear_acceleration_z,linear_acceleration_covariance_0,linear_acceleration_covariance_1,linear_acceleration_covariance_2,linear_acceleration_covariance_3,linear_acceleration_covariance_4,linear_acceleration_covariance_5,linear_acceleration_covariance_6,linear_acceleration_covariance_7,linear_acceleration_covariance_8
2026/06/04 15:16:52.95700330,1780597012,66049696,imu_link,-0.048706304281950004,0.07168221473693848,0.6402499675750732,0.7632622122764589,0.0,0.0,0.0,0.0,0.0,0.0,0.0,0.0,0.0,0.003062934149056673,-0.011675060726702215,0.010410697199404241,0.0,0.0,0.0,0.0,0.0,0.0,0.0,0.0,0.0,-1.3177299499511719,0.614989161491394,9.579955101013185,0.0,0.0,0.0,0.0,0.0,0.0,0.0,0.0,0.0
2026/06/04 15:16:52.95836725,1780597012,77846302,imu_link,-0.048711374402046204,0.07168246805667877,0.6402538418769838,0.7632586359977723,0.0,0.0,0.0,0.0,0.0,0.0,0.0,0.0,0.0,-0.0033348803408443928,0.0028006739448755984,0.0039167702198028564,0.0,0.0,0.0,0.0,0.0,0.0,0.0,0.0,0.0,-1.3192558288574219,0.5945242643356323,9.68322277069092,0.0,0.0,0.0,0.0,0.0,0.0,0.0,0.0,0.0
2026/06/04 15:16:52.95921345,1780597012,77866629,imu_link,-0.048712357878685,0.07168574631214142,0.6401966214179994,0.7633064389228822,0.0,0.0,0.0,0.0,0.0,0.0,0.0,0.0,0.0,-0.011967122554779053,0.004006177186965942,0.008708984591066839,0.0,0.0,0.0,0.0,0.0,0.0,0.0,0.0,0.0,-1.3867275714874268,0.5539198517799379,9.708955764770508,0.0,0.0,0.0,0.0,0.0,0.0,0.0,0.0,0.0
2026/06/04 15:16:52.95994180,1780597012,77879041,imu_link,-0.04872692003846169,0.07168083637952806,0.6402056813240052,0.7632983326911927,0.0,0.0,0.0,0.0,0.0,0.0,0.0,0.0,0.0,-0.012247266247868538,0.004563481081277133,0.00866428017616272,0.0,0.0,0.0,0.0,0.0,0.0,0.0,0.0,0.0,-1.4484002590179443,0.38077411055564886,9.726781845092773,0.0,0.0,0.0,0.0,0.0,0.0,0.0,0.0,0.0
2026/06/04 15:16:52.96073492,1780597012,77891221,imu_link,-0.048742689192295074,0.0716686174273491,0.6402085423469545,0.7632960677146913,0.0,0.0,0.0,0.0,0.0,0.0,0.0,0.0,0.0,-0.016151370480656627,0.0006265938282012939,0.0015579166356474161,0.0,0.0,0.0,0.0,0.0,0.0,0.0,0.0,0.0,-1.6252663135528564,0.22666142880916598,9.68194580078125,0.0,0.0,0.0,0.0,0.0,0.0,0.0,0.0,0.0
2026/06/04 15:16:52.96133817,1780597012,77907422,imu_link,-0.048760067671537406,0.07166057825088501,0.6402096152305604,0.7632948160171509,0.0,0.0,0.0,0.0,0.0,0.0,0.0,0.0,0.0,-0.014846029691398146,0.004015117883682251,-1.4901163922331763e-05,0.0,0.0,0.0,0.0,0.0,0.0,0.0,0.0,0.0,-1.7292275428771973,0.08037013560533525,9.65443515777588,0.0,0.0,0.0,0.0,0.0,0.0,0.0,0.0,0.0
2026/06/04 15:16:52.96194269,1780597012,88576829,imu_link,-0.048756148666143424,0.07165286689996721,0.6401941776275635,0.7633086442947388,0.0,0.0,0.0,0.0,0.0,0.0,0.0,0.0,0.0,-0.012761357240378858,-0.0049948696978390226,0.015289336442947388,0.0,0.0,0.0,0.0,0.0,0.0,0.0,0.0,0.0,-1.7533044815063477,0.011989318765699865,9.672163009643555,0.0,0.0,0.0,0.0,0.0,0.0,0.0,0.0,0.0
2026/06/04 15:16:52.96254189,1780597012,88598034,imu_link,-0.048751600086688995,0.07164145261049272,0.6401982307434082,0.7633066773414613,0.0,0.0,0.0,0.0,0.0,0.0,0.0,0.0,0.0,-0.003382563823834062,-0.009347496554255486,0.003290921682491899,0.0,0.0,0.0,0.0,0.0,0.0,0.0,0.0,0.0,-1.7439730167388916,-0.062223237007856376,9.681193351745607,0.0,0.0,0.0,0.0,0.0,0.0,0.0,0.0,0.0
2026/06/04 15:16:52.96314317,1780597012,88610701,imu_link,-0.048753824084997184,0.07162977755069733,0.6401927471160889,0.7633122205734253,0.0,0.0,0.0,0.0,0.0,0.0,0.0,0.0,0.0,-0.006815791595727206,-0.006103515625,-0.006775557994842529,0.0,0.0,0.0,0.0,0.0,0.0,0.0,0.0,0.0,-1.6702126264572146,-0.04987901821732522,9.64248275756836,0.0,0.0,0.0,0.0,0.0,0.0,0.0,0.0,0.0
2026/06/04 15:16:52.96374466,1780597012,88623963,imu_link,-0.04874912649393082,0.07161954045295715,0.6401966214179994,0.7633101940155029,0.0,0.0,0.0,0.0,0.0,0.0,0.0,0.0,0.0,-0.00268369959667325,-0.008705259300768377,0.003253669012337923,0.0,0.0,0.0,0.0,0.0,0.0,0.0,0.0,0.0,-1.5003740787506104,-0.011186243034899237,9.583982467651367,0.0,0.0,0.0,0.0,0.0,0.0,0.0,0.0,0.0
2026/06/04 15:16:52.98572455,1780597012,98293745,imu_link,-0.04873603582382202,0.07161847501993181,0.6402122974395752,0.7632979750633241,0.0,0.0,0.0,0.0,0.0,0.0,0.0,0.0,0.0,-0.00041872265865094965,-0.005988777149468661,0.013741105794906616,0.0,0.0,0.0,0.0,0.0,0.0,0.0,0.0,0.0,-1.522898316383362,0.014228229410946371,9.546301841735842,0.0,0.0,0.0,0.0,0.0,0.0,0.0,0.0,0.0
2026/06/04 15:16:52.98767288,1780597012,98312818,imu_link,-0.04872885346412659,0.07161734998226166,0.6402177810668945,0.7632939219474794,0.0,0.0,0.0,0.0,0.0,0.0,0.0,0.0,0.0,0.0033237040042877197,-0.004358590114861728,0.005812197923660278,0.0,0.0,0.0,0.0,0.0,0.0,0.0,0.0,0.0,-1.6494181156158447,0.09105929732322693,9.463661193847656,0.0,0.0,0.0,0.0,0.0,0.0,0.0,0.0,0.0
2026/06/04 15:16:52.98890251,1780597012,98320484,imu_link,-0.04872716590762139,0.07161484658718109,0.6402134895324707,0.7632979154586792,0.0,0.0,0.0,0.0,0.0,0.0,0.0,0.0,0.0,0.00014379620552062988,-0.0024542219471186404,-0.004680455196648837,0.0,0.0,0.0,0.0,0.0,0.0,0.0,0.0,0.0,-1.5592979192733767,0.25130218267440796,9.443649291992188,0.0,0.0,0.0,0.0,0.0,0.0,0.0,0.0,0.0
2026/06/04 15:16:52.98969298,1780597012,98327414,imu_link,-0.048725437372922904,0.0716191977262497,0.6402180194854736,0.7632938623428345,0.0,0.0,0.0,0.0,0.0,0.0,0.0,0.0,0.0,0.0028617682401090865,0.0018246471881866455,0.005089492071419955,0.0,0.0,0.0,0.0,0.0,0.0,0.0,0.0,0.0,-1.4736318588256836,0.39304801821708685,9.47174072265625,0.0,0.0,0.0,0.0,0.0,0.0,0.0,0.0,0.0
2026/06/04 15:16:52.110186077,1780597012,110073118,imu_link,-0.04872427135705948,0.07162909954786302,0.6402262449264526,0.7632861733436586,0.0,0.0,0.0,0.0,0.0,0.0,0.0,0.0,0.0,-0.0012129546375945213,0.007011741865426303,0.00666007399559021,0.0,0.0,0.0,0.0,0.0,0.0,0.0,0.0,0.0,-1.4156261682510378,0.5072062611579896,9.538030624389648,0.0,0.0,0.0,0.0,0.0,0.0,0.0,0.0,0.0
2026/06/04 15:16:52.110333187,1780597012,110088354,imu_link,-0.04873700812458993,0.07163943350315094,0.6402342915534974,0.7632776498794556,0.0,0.0,0.0,0.0,0.0,0.0,0.0,0.0,0.0,-0.0032827260438352828,0.013006478548049927,0.008950383402407171,0.0,0.0,0.0,0.0,0.0,0.0,0.0,0.0,0.0,-1.369847297668457,0.5904906392097474,9.618337631225586,0.0,0.0,0.0,0.0,0.0,0.0,0.0,0.0,0.0
2026/06/04 15:16:52.110478792,1780597012,110095630,imu_link,-0.048761498183012016,0.07165163010358812,0.6402386426925659,0.7632713317871094,0.0,0.0,0.0,0.0,0.0,0.0,0.0,0.0,0.0,-0.009214879013597967,0.020178407430648804,0.004985183477401733,0.0,0.0,0.0,0.0,0.0,0.0,0.0,0.0,0.0,-1.4286339282989502,0.5874958038330078,9.713949203491211,0.0,0.0,0.0,0.0,0.0,0.0,0.0,0.0,0.0
2026/06/04 15:16:52.110585016,1780597012,110102183,imu_link,-0.04879235103726388,0.07166328281164171,0.6402385234832764,0.7632684111595155,0.0,0.0,0.0,0.0,0.0,0.0,0.0,0.0,0.0,-0.012987852096557617,0.023088602349162105,0.00010356307029724121,0.0,0.0,0.0,0.0,0.0,0.0,0.0,0.0,0.0,-1.4802376031875613,0.46595814824104315,9.776498794555664,0.0,0.0,0.0,0.0,0.0,0.0,0.0,0.0,0.0
2026/06/04 15:16:52.110646115,1780597012,110108803,imu_link,-0.04881545901298523,0.07167964428663255,0.6401752829551698,0.7633182406425477,0.0,0.0,0.0,0.0,0.0,0.0,0.0,0.0,0.0,-0.018824633210897446,0.024329867213964462,0.004559009801596404,0.0,0.0,0.0,0.0,0.0,0.0,0.0,0.0,0.0,-1.6331605911254883,0.2973209023475647,9.74644184112549,0.0,0.0,0.0,0.0,0.0,0.0,0.0,0.0,0.0
2026/06/04 15:16:52.120775630,1780597012,120610085,imu_link,-0.04884598776698113,0.07169145345687866,0.6401941180229188,0.7632994055747987,0.0,0.0,0.0,0.0,0.0,0.0,0.0,0.0,0.0,-0.014419854618608953,0.023183971643447876,0.01984462328255177,0.0,0.0,0.0,0.0,0.0,0.0,0.0,0.0,0.0,-1.8231455087661745,0.17371419072151184,9.71714973449707,0.0,0.0,0.0,0.0,0.0,0.0,0.0,0.0,0.0
2026/06/04 15:16:52.120890376,1780597012,120623033,imu_link,-0.048876598477363586,0.07169539481401445,0.6402000784873964,0.7632920742034912,0.0,0.0,0.0,0.0,0.0,0.0,0.0,0.0,0.0,-0.017313661053776744,0.01826360821723938,0.0058241188526153564,0.0,0.0,0.0,0.0,0.0,0.0,0.0,0.0,0.0,-1.9822981357574463,0.020851114764809612,9.722691535949709,0.0,0.0,0.0,0.0,0.0,0.0,0.0,0.0,0.0
2026/06/04 15:16:52.120993872,1780597012,120629961,imu_link,-0.04889372363686562,0.07169802486896515,0.6401926279067993,0.7632969021797181,0.0,0.0,0.0,0.0,0.0,0.0,0.0,0.0,0.0,-0.008498132228851318,0.010379404760897161,-0.007924437522888184,0.0,0.0,0.0,0.0,0.0,0.0,0.0,0.0,0.0,-1.905573844909668,-0.02425307966768742,9.723542213439943,0.0,0.0,0.0,0.0,0.0,0.0,0.0,0.0,0.0
2026/06/04 15:16:52.121107081,1780597012,120636698,imu_link,-0.048906091600656516,0.07169633358716966,0.6403037309646606,0.7632031440734863,0.0,0.0,0.0,0.0,0.0,0.0,0.0,0.0,0.0,-0.008597970008850098,0.006609410047531128,0.011625141836702825,0.0,0.0,0.0,0.0,0.0,0.0,0.0,0.0,0.0,-1.786489725112915,-0.0678199827671051,9.709875106811523,0.0,0.0,0.0,0.0,0.0,0.0,0.0,0.0,0.0
2026/06/04 15:16:52.132647290,1780597012,132401857,imu_link,-0.048906855285167694,0.07169977575540544,0.6403185129165649,0.7631903290748597,0.0,0.0,0.0,0.0,0.0,0.0,0.0,0.0,0.0,-6.258488429011778e-05,0.002641230821609497,0.015693159773945812,0.0,0.0,0.0,0.0,0.0,0.0,0.0,0.0,0.0,-1.7805066108703613,-0.10547956824302673,9.708272933959961,0.0,0.0,0.0,0.0,0.0,0.0,0.0,0.0,0.0
2026/06/04 15:16:52.132756391,1780597012,132416191,imu_link,-0.04890870302915573,0.07170524448156358,0.64031982421875,0.7631886005401611,0.0,0.0,0.0,0.0,0.0,0.0,0.0,0.0,0.0,0.0015310944290831687,0.004331022500991821,0.0017561018466949463,0.0,0.0,0.0,0.0,0.0,0.0,0.0,0.0,0.0,-1.9000865221023562,-0.05927325785160065,9.651186943054201,0.0,0.0,0.0,0.0,0.0,0.0,0.0,0.0,0.0
2026/06/04 15:16:52.132882142,1780597012,132423374,imu_link,-0.04890802875161172,0.07170949876308441,0.640317440032959,0.7631903290748597,0.0,0.0,0.0,0.0,0.0,0.0,0.0,0.0,0.0,0.002788752550259233,0.002246350049972534,-0.0021338465157896285,0.0,0.0,0.0,0.0,0.0,0.0,0.0,0.0,0.0,-1.8652740716934206,-0.00995655544102192,9.606446266174318,0.0,0.0,0.0,0.0,0.0,0.0,0.0,0.0,0.0
2026/06/04 15:16:52.133006329,1780597012,132430067,imu_link,-0.04888927936553955,0.0717172995209694,0.64033180475235,0.7631787061691284,0.0,0.0,0.0,0.0,0.0,0.0,0.0,0.0,0.0,0.00789538025856018,-0.0032529234886169434,0.013432652689516546,0.0,0.0,0.0,0.0,0.0,0.0,0.0,0.0,0.0,-1.7691038846969607,0.10222005844116211,9.576380729675295,0.0,0.0,0.0,0.0,0.0,0.0,0.0,0.0,0.0
2026/06/04 15:16:52.133118205,1780597012,132436624,imu_link,-0.04887999221682549,0.0717218816280365,0.6403344869613647,0.7631766200065614,0.0,0.0,0.0,0.0,0.0,0.0,0.0,0.0,0.0,0.007774680852890015,-0.001950562349520624,0.003419071901589632,0.0,0.0,0.0,0.0,0.0,0.0,0.0,0.0,0.0,-1.7902843952178955,0.21604178845882419,9.575228691101076,0.0,0.0,0.0,0.0,0.0,0.0,0.0,0.0,0.0
2026/06/04 15:16:52.143278592,1780597012,143113150,imu_link,-0.048869892954826355,0.0717231258749962,0.6403337121009828,0.7631778717041016,0.0,0.0,0.0,0.0,0.0,0.0,0.0,0.0,0.0,0.006891042459756137,-0.0044539570808410645,-0.000496208667755127,0.0,0.0,0.0,0.0,0.0,0.0,0.0,0.0,0.0,-1.7211086750030518,0.39882287383079534,9.593618392944336,0.0,0.0,0.0,0.0,0.0,0.0,0.0,0.0,0.0
2026/06/04 15:16:52.143403289,1780597012,143126512,imu_link,-0.0488644726574421,0.0717214047908783,0.6403425335884095,0.7631710767745972,0.0,0.0,0.0,0.0,0.0,0.0,0.0,0.0,0.0,0.0016532838344573975,-0.0037819154094904666,0.009097903966903687,0.0,0.0,0.0,0.0,0.0,0.0,0.0,0.0,0.0,-1.5866674184799197,0.5387588739395142,9.641422271728516,0.0,0.0,0.0,0.0,0.0,0.0,0.0,0.0,0.0
2026/06/04 15:16:52.143514147,1780597012,143133637,imu_link,-0.04886014759540558,0.07172545790672302,0.6403508186340332,0.7631639242172241,0.0,0.0,0.0,0.0,0.0,0.0,0.0,0.0,0.0,-0.0022307040635496382,0.0016011298866942527,0.00650063157081604,0.0,0.0,0.0,0.0,0.0,0.0,0.0,0.0,0.0,-1.4664945602416992,0.5683833956718446,9.718343734741211,0.0,0.0,0.0,0.0,0.0,0.0,0.0,0.0,0.0
2026/06/04 15:16:52.143631340,1780597012,143140499,imu_link,-0.04887338727712631,0.07172372937202454,0.640347182750702,0.7631662487983705,0.0,0.0,0.0,0.0,0.0,0.0,0.0,0.0,0.0,-0.008675456047058105,0.005724280606955291,-0.004272162914276123,0.0,0.0,0.0,0.0,0.0,0.0,0.0,0.0,0.0,-1.512218952178955,0.5053634047508241,9.727943420410156,0.0,0.0,0.0,0.0,0.0,0.0,0.0,0.0,0.0
2026/06/04 15:16:52.154189003,1780597012,153821134,imu_link,-0.04888476058840752,0.07172532379627228,0.640358567237854,0.7631558775901796,0.0,0.0,0.0,0.0,0.0,0.0,0.0,0.0,0.0,-0.007191300857812167,0.006946176290512085,0.011674314737319946,0.0,0.0,0.0,0.0,0.0,0.0,0.0,0.0,0.0,-1.478684902191162,0.4467838406562805,9.729176521301271,0.0,0.0,0.0,0.0,0.0,0.0,0.0,0.0,0.0
2026/06/04 15:16:52.154351824,1780597012,153840365,imu_link,-0.04889680072665215,0.07172729074954987,0.640377700328827,0.7631388902664185,0.0,0.0,0.0,0.0,0.0,0.0,0.0,0.0,0.0,-0.008112190291285515,0.007592886220663787,0.01978650689125061,0.0,0.0,0.0,0.0,0.0,0.0,0.0,0.0,0.0,-1.632524609565735,0.33641126751899725,9.728360176086428,0.0,0.0,0.0,0.0,0.0,0.0,0.0,0.0,0.0
2026/06/04 15:16:52.154479136,1780597012,153852309,imu_link,-0.04889567196369171,0.07172887027263641,0.6402605772018433,0.7632369995117188,0.0,0.0,0.0,0.0,0.0,0.0,0.0,0.0,0.0,-0.01449734251946211,0.0026769938413053755,-0.004416704177856445,0.0,0.0,0.0,0.0,0.0,0.0,0.0,0.0,0.0,-1.8265433311462402,0.14737711846828463,9.67633056640625,0.0,0.0,0.0,0.0,0.0,0.0,0.0,0.0,0.0
2026/06/04 15:16:52.154597711,1780597012,153863504,imu_link,-0.0489027202129364,0.0717211738228798,0.6402533650398256,0.7632433176040649,0.0,0.0,0.0,0.0,0.0,0.0,0.0,0.0,0.0,-0.007595121394842864,-0.00117570161819458,-0.008320809341967108,0.0,0.0,0.0,0.0,0.0,0.0,0.0,0.0,0.0,-1.7150614261627197,0.08155885338783264,9.639698028564453,0.0,0.0,0.0,0.0,0.0,0.0,0.0,0.0,0.0
2026/06/04 15:16:52.164943052,1780597012,164565128,imu_link,-0.04890055954456329,0.07171200960874559,0.640268623828888,0.7632315158843994,0.0,0.0,0.0,0.0,0.0,0.0,0.0,0.0,0.0,-0.004716217517852783,-0.006631017196923495,0.015100092627108099,0.0,0.0,0.0,0.0,0.0,0.0,0.0,0.0,0.0,-1.5960745811462402,0.04145490005612374,9.671142578125,0.0,0.0,0.0,0.0,0.0,0.0,0.0,0.0,0.0
2026/06/04 15:16:52.165335020,1780597012,164602054,imu_link,-0.04889629408717156,0.07170669734477997,0.640282392501831,0.7632207274436952,0.0,0.0,0.0,0.0,0.0,0.0,0.0,0.0,0.0,-0.0013381245080381632,-0.005356968846172095,0.013966115191578865,0.0,0.0,0.0,0.0,0.0,0.0,0.0,0.0,0.0,-1.6514923572540283,-0.012729943729937078,9.63008213043213,0.0,0.0,0.0,0.0,0.0,0.0,0.0,0.0,0.0
2026/06/04 15:16:52.165515101,1780597012,164625031,imu_link,-0.04888053983449936,0.07170974463224412,0.6401551365852357,0.7633281946182251,0.0,0.0,0.0,0.0,0.0,0.0,0.0,0.0,0.0,-0.004802644718438388,-0.003966689575463534,-0.008019804954528809,0.0,0.0,0.0,0.0,0.0,0.0,0.0,0.0,0.0,-1.7487767934799197,0.019352192059159282,9.610170364379883,0.0,0.0,0.0,0.0,0.0,0.0,0.0,0.0,0.0
2026/06/04 15:16:52.165983278,1780597012,164647391,imu_link,-0.04887284711003304,0.07170245051383972,0.6401550769805908,0.7633294463157655,0.0,0.0,0.0,0.0,0.0,0.0,0.0,0.0,0.0,0.0010050834389403465,-0.008471310138702393,-0.0005126000032760204,0.0,0.0,0.0,0.0,0.0,0.0,0.0,0.0,0.0,-1.6138434410095215,0.0828724354505539,9.57304096221924,0.0,0.0,0.0,0.0,0.0,0.0,0.0,0.0,0.0
2026/06/04 15:16:52.176711216,1780597012,176375445,imu_link,-0.04886345937848092,0.07169873267412187,0.6401669979095459,0.7633204460144043,0.0,0.0,0.0,0.0,0.0,0.0,0.0,0.0,0.0,0.0027842819690704346,-0.007034838665276767,0.012277812696993353,0.0,0.0,0.0,0.0,0.0,0.0,0.0,0.0,0.0,-1.5767306089401247,0.060553949326276786,9.544018745422365,0.0,0.0,0.0,0.0,0.0,0.0,0.0,0.0,0.0
2026/06/04 15:16:52.177017939,1780597012,176413366,imu_link,-0.04885822162032128,0.07169948518276215,0.6401715874671937,0.7633168101310731,0.0,0.0,0.0,0.0,0.0,0.0,0.0,0.0,0.0,0.0031702227424830203,-0.0021979217417538166,0.005019457545131446,0.0,0.0,0.0,0.0,0.0,0.0,0.0,0.0,0.0,-1.6606744527816775,0.1415737271308899,9.50110721588135,0.0,0.0,0.0,0.0,0.0,0.0,0.0,0.0,0.0
2026/06/04 15:16:52.177305240,1780597012,176433525,imu_link,-0.04883333295583725,0.07170865684747697,0.6400781869888306,0.7633957266807557,0.0,0.0,0.0,0.0,0.0,0.0,0.0,0.0,0.0,0.00526383426040411,-0.004932284355163574,0.0033773484174162154,0.0,0.0,0.0,0.0,0.0,0.0,0.0,0.0,0.0,-1.6817089319229128,0.29139113426208496,9.484283447265625,0.0,0.0,0.0,0.0,0.0,0.0,0.0,0.0,0.0
2026/06/04 15:16:52.177469864,1780597012,176451808,imu_link,-0.04882953315973282,0.07171161472797394,0.6400822401046753,0.7633923292160034,0.0,0.0,0.0,0.0,0.0,0.0,0.0,0.0,0.0,0.003462284803390503,-0.00010430813563289122,0.004572421312332153,0.0,0.0,0.0,0.0,0.0,0.0,0.0,0.0,0.0,-1.5557210445404053,0.4650167226791382,9.551974296569826,0.0,0.0,0.0,0.0,0.0,0.0,0.0,0.0,0.0
2026/06/04 15:16:52.177713600,1780597012,176471028,imu_link,-0.04883051663637161,0.0717151388525963,0.6400848627090454,0.7633897662162782,0.0,0.0,0.0,0.0,0.0,0.0,0.0,0.0,0.0,0.0009484590846113862,0.0026978556998074055,0.0029869377613067627,0.0,0.0,0.0,0.0,0.0,0.0,0.0,0.0,0.0,-1.481140971183777,0.5342822670936586,9.605037689208984,0.0,0.0,0.0,0.0,0.0,0.0,0.0,0.0,0.0
2026/06/04 15:16:52.186624349,1780597012,186210400,imu_link,-0.04883998259902001,0.07171732187271118,0.6400878429412842,0.7633864879608154,0.0,0.0,0.0,0.0,0.0,0.0,0.0,0.0,0.0,-0.004969536792486907,0.006250292062759399,0.0030763449613004927,0.0,0.0,0.0,0.0,0.0,0.0,0.0,0.0,0.0,-1.4316357374191286,0.5307776927947998,9.658487319946289,0.0,0.0,0.0,0.0,0.0,0.0,0.0,0.0,0.0
2026/06/04 15:16:52.187134939,1780597012,186270181,imu_link,-0.04884287342429162,0.07172499597072601,0.6400583386421205,0.7634102702140809,0.0,0.0,0.0,0.0,0.0,0.0,0.0,0.0,0.0,-0.009827316738665106,0.008366257883608343,0.016336888074874878,0.0,0.0,0.0,0.0,0.0,0.0,0.0,0.0,0.0,-1.50734543800354,0.5290157794952393,9.753685951232912,0.0,0.0,0.0,0.0,0.0,0.0,0.0,0.0,0.0
2026/06/04 15:16:52.187396261,1780597012,186301322,imu_link,-0.04887156933546066,0.07172948122024536,0.6400671601295472,0.7634005546569824,0.0,0.0,0.0,0.0,0.0,0.0,0.0,0.0,0.0,-0.016118587926030162,0.01763775944709778,0.008841604925692083,0.0,0.0,0.0,0.0,0.0,0.0,0.0,0.0,0.0,-1.7317235469818115,0.40268990397453314,9.801280975341797,0.0,0.0,0.0,0.0,0.0,0.0,0.0,0.0,0.0
2026/06/04 15:16:52.187693855,1780597012,186333061,imu_link,-0.04889912158250809,0.07172746956348419,0.6400650143623353,0.7634008526802064,0.0,0.0,0.0,0.0,0.0,0.0,0.0,0.0,0.0,-0.017730891704559326,0.012940914370119573,-0.0031068923417478804,0.0,0.0,0.0,0.0,0.0,0.0,0.0,0.0,0.0,-1.8745262622833252,0.258999913930893,9.758947372436523,0.0,0.0,0.0,0.0,0.0,0.0,0.0,0.0,0.0
2026/06/04 15:16:52.198432068,1780597012,197921950,imu_link,-0.04892038553953171,0.07172062993049622,0.6400724053382875,0.7633939385414125,0.0,0.0,0.0,0.0,0.0,0.0,0.0,0.0,0.0,-0.017189975827932358,0.0068105761893093595,0.006539374589920044,0.0,0.0,0.0,0.0,0.0,0.0,0.0,0.0,0.0,-1.9263718128204346,0.1279522925615311,9.771487236022951,0.0,0.0,0.0,0.0,0.0,0.0,0.0,0.0,0.0
2026/06/04 15:16:52.198668720,1780597012,197984593,imu_link,-0.048924095928668976,0.07171311974525452,0.6400904655456543,0.7633792757987977,0.0,0.0,0.0,0.0,0.0,0.0,0.0,0.0,0.0,-0.014491380192339422,-0.0008016825304366649,0.015036016702651978,0.0,0.0,0.0,0.0,0.0,0.0,0.0,0.0,0.0,-1.9335780143737793,0.016692610457539562,9.812121391296388,0.0,0.0,0.0,0.0,0.0,0.0,0.0,0.0,0.0
2026/06/04 15:16:52.198907258,1780597012,198010485,imu_link,-0.0489293746650219,0.07170268148183824,0.6400970220565796,0.7633744478225708,0.0,0.0,0.0,0.0,0.0,0.0,0.0,0.0,0.0,-0.009144842624664307,-0.0036537649575620894,0.005766004323959351,0.0,0.0,0.0,0.0,0.0,0.0,0.0,0.0,0.0,-1.9898716211318972,-0.01931653916835785,9.80026149749756,0.0,0.0,0.0,0.0,0.0,0.0,0.0,0.0,0.0
2026/06/04 15:16:52.199136938,1780597012,198034573,imu_link,-0.04892914742231369,0.07168474048376085,0.6400996446609497,0.7633739709854126,0.0,0.0,0.0,0.0,0.0,0.0,0.0,0.0,0.0,-0.009228289127349854,-0.011152031831443312,0.0011958185350522401,0.0,0.0,0.0,0.0,0.0,0.0,0.0,0.0,0.0,-1.8687148094177246,-0.0064664105884730825,9.77132797241211,0.0,0.0,0.0,0.0,0.0,0.0,0.0,0.0,0.0
2026/06/04 15:16:52.199440231,1780597012,198067609,imu_link,-0.04892346262931824,0.07166948914527893,0.6401031613349916,0.7633727788925171,0.0,0.0,0.0,0.0,0.0,0.0,0.0,0.0,0.0,-0.004594028461724521,-0.01230686902999878,0.0024475159589201216,0.0,0.0,0.0,0.0,0.0,0.0,0.0,0.0,0.0,-1.7644743919372559,-0.044757045805454254,9.755855560302734,0.0,0.0,0.0,0.0,0.0,0.0,0.0,0.0,0.0
2026/06/04 15:16:52.209218268,1780597012,208680374,imu_link,-0.048910263925790794,0.07166036218404771,0.6401121616363525,0.7633668780326844,0.0,0.0,0.0,0.0,0.0,0.0,0.0,0.0,0.0,-0.0038176777306944136,-0.010991097427904608,0.00630989670753479,0.0,0.0,0.0,0.0,0.0,0.0,0.0,0.0,0.0,-1.731701970100403,-0.010054799728095533,9.679150581359865,0.0,0.0,0.0,0.0,0.0,0.0,0.0,0.0,0.0
2026/06/04 15:16:52.209518691,1780597012,208742286,imu_link,-0.04889735952019692,0.07164663821458818,0.6401197314262391,0.7633626461029053,0.0,0.0,0.0,0.0,0.0,0.0,0.0,0.0,0.0,0.00024363400007132444,-0.015047190710902214,0.006970018614083529,0.0,0.0,0.0,0.0,0.0,0.0,0.0,0.0,0.0,-1.7589781284332275,0.04593205079436303,9.552377700805664,0.0,0.0,0.0,0.0,0.0,0.0,0.0,0.0,0.0
2026/06/04 15:16:52.209975631,1780597012,208777572,imu_link,-0.04888189211487771,0.0716375857591629,0.6401243209838867,0.7633606195449829,0.0,0.0,0.0,0.0,0.0,0.0,0.0,0.0,0.0,0.004457682371139526,-0.013519824482500555,0.0043623154051601895,0.0,0.0,0.0,0.0,0.0,0.0,0.0,0.0,0.0,-1.7177448272705078,0.14138785004615784,9.521707534790039,0.0,0.0,0.0,0.0,0.0,0.0,0.0,0.0,0.0
2026/06/04 15:16:52.210211541,1780597012,208808860,imu_link,-0.04886507987976074,0.07162559777498247,0.6401191353797914,0.7633672356605531,0.0,0.0,0.0,0.0,0.0,0.0,0.0,0.0,0.0,0.00467970920726657,-0.01610666513442993,-0.0060722227208316335,0.0,0.0,0.0,0.0,0.0,0.0,0.0,0.0,0.0,-1.548818588256836,0.3017585873603821,9.494435310363771,0.0,0.0,0.0,0.0,0.0,0.0,0.0,0.0,0.0
2026/06/04 15:16:52.219805435,1780597012,219283389,imu_link,-0.048849910497665405,0.07162087410688402,0.6401306986808778,0.7633590698242188,0.0,0.0,0.0,0.0,0.0,0.0,0.0,0.0,0.0,0.000911206181626767,-0.009523333050310613,0.0021599233150482178,0.0,0.0,0.0,0.0,0.0,0.0,0.0,0.0,0.0,-1.4313092231750488,0.4511887133121491,9.446939468383789,0.0,0.0,0.0,0.0,0.0,0.0,0.0,0.0,0.0
2026/06/04 15:16:52.220090843,1780597012,219339256,imu_link,-0.04884010925889016,0.07161743193864824,0.6401491165161133,0.7633445858955384,0.0,0.0,0.0,0.0,0.0,0.0,0.0,0.0,0.0,0.002586096758022905,-0.007016957737505436,0.019123407080769542,0.0,0.0,0.0,0.0,0.0,0.0,0.0,0.0,0.0,-1.315375804901123,0.5711368322372437,9.508175849914553,0.0,0.0,0.0,0.0,0.0,0.0,0.0,0.0,0.0
2026/06/04 15:16:52.220782435,1780597012,219371228,imu_link,-0.04884939640760422,0.07162230461835863,0.6401576399803163,0.7633363604545594,0.0,0.0,0.0,0.0,0.0,0.0,0.0,0.0,0.0,-0.003993511199951172,0.007862598635256292,0.009066612459719183,0.0,0.0,0.0,0.0,0.0,0.0,0.0,0.0,0.0,-1.288135886192322,0.6098319292068481,9.601025581359865,0.0,0.0,0.0,0.0,0.0,0.0,0.0,0.0,0.0
2026/06/04 15:16:52.221325780,1780597012,219397478,imu_link,-0.048870302736759186,0.07162192463874817,0.6401494145393373,0.7633419036865234,0.0,0.0,0.0,0.0,0.0,0.0,0.0,0.0,0.0,-0.012284517288208008,0.010468811728060247,-0.009050965309143066,0.0,0.0,0.0,0.0,0.0,0.0,0.0,0.0,0.0,-1.184681057929993,0.5622493028640747,9.650002479553224,0.0,0.0,0.0,0.0,0.0,0.0,0.0,0.0,0.0
2026/06/04 15:16:52.229800422,1780597012,228955397,imu_link,-0.048907116055488586,0.07161887735128404,0.640346884727478,0.7631740570068359,0.0,0.0,0.0,0.0,0.0,0.0,0.0,0.0,0.0,-0.017116963863372803,0.017740577459335327,0.012508780695497991,0.0,0.0,0.0,0.0,0.0,0.0,0.0,0.0,0.0,-1.2067166566848757,0.4391971826553345,9.647287368774414,0.0,0.0,0.0,0.0,0.0,0.0,0.0,0.0,0.0
2026/06/04 15:16:52.230238894,1780597012,228990731,imu_link,-0.04893600195646286,0.07162524014711381,0.6403677463531494,0.7631540894508363,0.0,0.0,0.0,0.0,0.0,0.0,0.0,0.0,0.0,-0.016359984874725342,0.019002707675099376,0.021521005779504776,0.0,0.0,0.0,0.0,0.0,0.0,0.0,0.0,0.0,-1.4124306440353396,0.2566014528274536,9.641972541809084,0.0,0.0,0.0,0.0,0.0,0.0,0.0,0.0,0.0
2026/06/04 15:16:52.230846876,1780597012,229019143,imu_link,-0.04896126687526703,0.07163832336664201,0.6403691172599794,0.7631500363349916,0.0,0.0,0.0,0.0,0.0,0.0,0.0,0.0,0.0,-0.008967519737780096,0.021106749773025513,0.002006441354751587,0.0,0.0,0.0,0.0,0.0,0.0,0.0,0.0,0.0,-1.6477886438369753,0.0802828148007393,9.615550994873047,0.0,0.0,0.0,0.0,0.0,0.0,0.0,0.0,0.0
2026/06/04 15:16:52.231376959,1780597012,229059366,imu_link,-0.048978760838508606,0.07163798809051514,0.640366792678833,0.7631509304046631,0.0,0.0,0.0,0.0,0.0,0.0,0.0,0.0,0.0,-0.010691583156585693,0.00879690144211054,-0.002881885040551424,0.0,0.0,0.0,0.0,0.0,0.0,0.0,0.0,0.0,-1.6148779392242432,0.02180841937661171,9.633982658386232,0.0,0.0,0.0,0.0,0.0,0.0,0.0,0.0,0.0
2026/06/04 15:16:52.231859642,1780597012,229088221,imu_link,-0.04898458346724511,0.0716499388217926,0.6403810381889344,0.7631375789642334,0.0,0.0,0.0,0.0,0.0,0.0,0.0,0.0,0.0,-0.0054657463915646085,0.012632460333406927,0.012759119272232056,0.0,0.0,0.0,0.0,0.0,0.0,0.0,0.0,0.0,-1.5203449726104736,-0.09163592755794525,9.637043952941896,0.0,0.0,0.0,0.0,0.0,0.0,0.0,0.0,0.0
2026/06/04 15:16:52.237159107,1780597012,236412063,imu_link,-0.048997215926647186,0.07166696339845659,0.6403864026069642,0.7631306052207948,0.0,0.0,0.0,0.0,0.0,0.0,0.0,0.0,0.0,0.00042244794894941157,0.017046183347702026,0.006792695727199317,0.0,0.0,0.0,0.0,0.0,0.0,0.0,0.0,0.0,-1.5904970169067383,-0.12568095326423645,9.613065719604492,0.0,0.0,0.0,0.0,0.0,0.0,0.0,0.0,0.0
2026/06/04 15:16:52.237573870,1780597012,236430338,imu_link,-0.049000848084688194,0.07168160378932953,0.6403837800025941,0.7631312608718872,0.0,0.0,0.0,0.0,0.0,0.0,0.0,0.0,0.0,0.005451591219753028,0.010859223082661629,-0.0015839936677366495,0.0,0.0,0.0,0.0,0.0,0.0,0.0,0.0,0.0,-1.633021950721741,-0.09266824275255205,9.592561721801758,0.0,0.0,0.0,0.0,0.0,0.0,0.0,0.0,0.0
2026/06/04 15:16:52.248390788,1780597012,248089468,imu_link,-0.04899927601218224,0.07169641554355621,0.6403923034667969,0.7631227374076844,0.0,0.0,0.0,0.0,0.0,0.0,0.0,0.0,0.0,0.007716565392911434,0.00838115904480219,0.010237842798233032,0.0,0.0,0.0,0.0,0.0,0.0,0.0,0.0,0.0,-1.6163930892944336,-0.032079748809337616,9.568872451782227,0.0,0.0,0.0,0.0,0.0,0.0,0.0,0.0,0.0
2026/06/04 15:16:52.248648265,1780597012,248119730,imu_link,-0.04899875074625015,0.07171586155891418,0.6404005885124208,0.7631140351295472,0.0,0.0,0.0,0.0,0.0,0.0,0.0,0.0,0.0,0.0032491981983184814,0.014034658670425415,0.007569045294076205,0.0,0.0,0.0,0.0,0.0,0.0,0.0,0.0,0.0,-1.7007834911346436,0.015296950004994871,9.541570663452148,0.0,0.0,0.0,0.0,0.0,0.0,0.0,0.0,0.0
2026/06/04 15:16:52.249006522,1780597012,248134924,imu_link,-0.049000561237335205,0.07173504680395128,0.6403948068618774,0.7631169557571411,0.0,0.0,0.0,0.0,0.0,0.0,0.0,0.0,0.0,0.009160489775240423,0.012696534395217896,-0.004379451740533114,0.0,0.0,0.0,0.0,0.0,0.0,0.0,0.0,0.0,-1.7559230327606201,0.15552838146686557,9.514868736267092,0.0,0.0,0.0,0.0,0.0,0.0,0.0,0.0,0.0
2026/06/04 15:16:52.249301432,1780597012,248150049,imu_link,-0.04899884387850762,0.07175885885953905,0.640402376651764,0.763108491897583,0.0,0.0,0.0,0.0,0.0,0.0,0.0,0.0,0.0,0.012471527792513372,0.01383945345878601,0.009987503290176392,0.0,0.0,0.0,0.0,0.0,0.0,0.0,0.0,0.0,-1.6141046285629275,0.36385422945022583,9.530310630798342,0.0,0.0,0.0,0.0,0.0,0.0,0.0,0.0,0.0
2026/06/04 15:16:52.249609918,1780597012,248164548,imu_link,-0.04900269955396652,0.07177990674972534,0.6404211521148682,0.7630904912948608,0.0,0.0,0.0,0.0,0.0,0.0,0.0,0.0,0.0,0.006634742021560669,0.015116482041776182,0.021300464868545532,0.0,0.0,0.0,0.0,0.0,0.0,0.0,0.0,0.0,-1.6412272453308105,0.5372849106788636,9.630584716796875,0.0,0.0,0.0,0.0,0.0,0.0,0.0,0.0,0.0
2026/06/04 15:16:52.258897086,1780597012,258654478,imu_link,-0.04899976775050164,0.07180458307266235,0.6402948498725892,0.7631943821907045,0.0,0.0,0.0,0.0,0.0,0.0,0.0,0.0,0.0,-0.0012919307919219138,0.016654284670948986,-0.005918741226196289,0.0,0.0,0.0,0.0,0.0,0.0,0.0,0.0,0.0,-1.7348371744155886,0.60493004322052,9.720208168029787,0.0,0.0,0.0,0.0,0.0,0.0,0.0,0.0,0.0
2026/06/04 15:16:52.259088395,1780597012,258664977,imu_link,-0.049015745520591736,0.07181151211261749,0.6402891278266908,0.7631974816322328,0.0,0.0,0.0,0.0,0.0,0.0,0.0,0.0,0.0,-0.005763769615441562,0.01244768500328064,-0.005769730079919101,0.0,0.0,0.0,0.0,0.0,0.0,0.0,0.0,0.0,-1.654365658760071,0.616695761680603,9.770660400390625,0.0,0.0,0.0,0.0,0.0,0.0,0.0,0.0,0.0
2026/06/04 15:16:52.259326205,1780597012,258672014,imu_link,-0.04903624951839447,0.07182109355926514,0.6403019428253174,0.7631844878196717,0.0,0.0,0.0,0.0,0.0,0.0,0.0,0.0,0.0,-0.008860230445861816,0.016591699793934826,0.013671071268618109,0.0,0.0,0.0,0.0,0.0,0.0,0.0,0.0,0.0,-1.602396368980408,0.5550177693367006,9.865706443786623,0.0,0.0,0.0,0.0,0.0,0.0,0.0,0.0,0.0
2026/06/04 15:16:52.259526757,1780597012,258691619,imu_link,-0.04906200990080834,0.07183330506086351,0.6403183937072754,0.7631679177284242,0.0,0.0,0.0,0.0,0.0,0.0,0.0,0.0,0.0,-0.011074542999267578,0.02095475979149342,0.017527490854263306,0.0,0.0,0.0,0.0,0.0,0.0,0.0,0.0,0.0,-1.8970959186553955,0.4128933548927307,9.890182495117188,0.0,0.0,0.0,0.0,0.0,0.0,0.0,0.0,0.0
2026/06/04 15:16:52.270583294,1780597012,270379175,imu_link,-0.04905835539102554,0.07185053825378418,0.640089750289917,0.7633584141731263,0.0,0.0,0.0,0.0,0.0,0.0,0.0,0.0,0.0,-0.013932587578892708,0.012423845008015633,-0.005270542111247779,0.0,0.0,0.0,0.0,0.0,0.0,0.0,0.0,0.0,-2.1535868644714355,0.26234155893325806,9.86181640625,0.0,0.0,0.0,0.0,0.0,0.0,0.0,0.0,0.0
2026/06/04 15:16:52.270812850,1780597012,270401175,imu_link,-0.049073096364736564,0.07184459269046783,0.6400939822196962,0.7633544802665712,0.0,0.0,0.0,0.0,0.0,0.0,0.0,0.0,0.0,-0.012449920177459717,0.003970413934439422,0.0034786760807037354,0.0,0.0,0.0,0.0,0.0,0.0,0.0,0.0,0.0,-2.128029584884644,0.12159279733896257,9.808570861816406,0.0,0.0,0.0,0.0,0.0,0.0,0.0,0.0,0.0
2026/06/04 15:16:52.271064921,1780597012,270414487,imu_link,-0.04907593876123428,0.07183390855789185,0.6401048302650453,0.7633461952209473,0.0,0.0,0.0,0.0,0.0,0.0,0.0,0.0,0.0,-0.00817030668258667,-0.005026162136346103,0.010333211161196234,0.0,0.0,0.0,0.0,0.0,0.0,0.0,0.0,0.0,-2.1705820560455327,0.013850940391421318,9.806445121765138,0.0,0.0,0.0,0.0,0.0,0.0,0.0,0.0,0.0
2026/06/04 15:16:52.271297202,1780597012,270426592,imu_link,-0.0490737371146679,0.07181663811206818,0.6401077508926392,0.7633455395698548,0.0,0.0,0.0,0.0,0.0,0.0,0.0,0.0,0.0,-0.007705391384661198,-0.011758509092032911,0.0015787782613188028,0.0,0.0,0.0,0.0,0.0,0.0,0.0,0.0,0.0,-2.1006801128387456,-0.027288854122161865,9.809030532836914,0.0,0.0,0.0,0.0,0.0,0.0,0.0,0.0,0.0
2026/06/04 15:16:52.271484298,1780597012,270438767,imu_link,-0.04904304817318917,0.07180671393871307,0.6400048136711122,0.763434648513794,0.0,0.0,0.0,0.0,0.0,0.0,0.0,0.0,0.0,-0.0028938052710145716,-0.01948177628219128,0.006356090307235718,0.0,0.0,0.0,0.0,0.0,0.0,0.0,0.0,0.0,-2.045559883117676,0.012311812490224838,9.78341579437256,0.0,0.0,0.0,0.0,0.0,0.0,0.0,0.0,0.0
2026/06/04 15:16:52.281307310,1780597012,281077901,imu_link,-0.049026664346456535,0.07178136706352234,0.6400132775306703,0.7634309530258179,0.0,0.0,0.0,0.0,0.0,0.0,0.0,0.0,0.0,-0.0036120410077273846,-0.02399980835616589,0.006993859075009823,0.0,0.0,0.0,0.0,0.0,0.0,0.0,0.0,0.0,-1.9411425590515137,0.018661651760339737,9.762117385864258,0.0,0.0,0.0,0.0,0.0,0.0,0.0,0.0,0.0
2026/06/04 15:16:52.281544424,1780597012,281098681,imu_link,-0.04900752380490304,0.07175523787736894,0.6400138139724731,0.7634341716766357,0.0,0.0,0.0,0.0,0.0,0.0,0.0,0.0,0.0,-0.0016033650608733299,-0.02597123384475708,-0.0012576577719300985,0.0,0.0,0.0,0.0,0.0,0.0,0.0,0.0,0.0,-1.8706001043319704,0.010517285205423834,9.673645973205568,0.0,0.0,0.0,0.0,0.0,0.0,0.0,0.0,0.0
2026/06/04 15:16:52.281785862,1780597012,281111373,imu_link,-0.048986192792654044,0.07173030823469163,0.640013575553894,0.7634380459785463,0.0,0.0,0.0,0.0,0.0,0.0,0.0,0.0,0.0,0.00041499739745631814,-0.026372080668807033,-0.0018641354981809855,0.0,0.0,0.0,0.0,0.0,0.0,0.0,0.0,0.0,-1.7963763475418093,0.0881449282169342,9.591912269592287,0.0,0.0,0.0,0.0,0.0,0.0,0.0,0.0,0.0
2026/06/04 15:16:52.281975331,1780597012,281123183,imu_link,-0.048943907022476196,0.07171326875686646,0.639970362186432,0.7634785771369935,0.0,0.0,0.0,0.0,0.0,0.0,0.0,0.0,0.0,0.004949421156197787,-0.030604010447859768,0.011944027617573738,0.0,0.0,0.0,0.0,0.0,0.0,0.0,0.0,0.0,-1.7243642807006836,0.19622138142585754,9.557853698730469,0.0,0.0,0.0,0.0,0.0,0.0,0.0,0.0,0.0
2026/06/04 15:16:52.290930929,1780597012,290656452,imu_link,-0.04891593009233475,0.0716889500617981,0.6399742960929872,0.7634793519973755,0.0,0.0,0.0,0.0,0.0,0.0,0.0,0.0,0.0,0.004432350397109985,-0.029379131272435192,0.0026769936084747314,0.0,0.0,0.0,0.0,0.0,0.0,0.0,0.0,0.0,-1.7079032659530642,0.33080324530601507,9.496071815490724,0.0,0.0,0.0,0.0,0.0,0.0,0.0,0.0,0.0
2026/06/04 15:16:52.291149711,1780597012,290675209,imu_link,-0.048892188817262656,0.07166257500648499,0.6399683952331543,0.7634882330894471,0.0,0.0,0.0,0.0,0.0,0.0,0.0,0.0,0.0,0.001669675228185952,-0.028549134731292725,-0.007778407074511051,0.0,0.0,0.0,0.0,0.0,0.0,0.0,0.0,0.0,-1.522064208984375,0.47453445196151733,9.484613418579102,0.0,0.0,0.0,0.0,0.0,0.0,0.0,0.0,0.0
2026/06/04 15:16:52.291320687,1780597012,290687608,imu_link,-0.048875510692596436,0.07163605093955994,0.6399737596511841,0.7634873390197754,0.0,0.0,0.0,0.0,0.0,0.0,0.0,0.0,0.0,-0.0037416815757751465,-0.024899842217564586,0.0036053359508514404,0.0,0.0,0.0,0.0,0.0,0.0,0.0,0.0,0.0,-1.2886266708374023,0.5397498607635498,9.526528358459474,0.0,0.0,0.0,0.0,0.0,0.0,0.0,0.0,0.0
2026/06/04 15:16:52.291504385,1780597012,290699071,imu_link,-0.04885943606495858,0.07161694020032884,0.6399917602539062,0.7634751796722412,0.0,0.0,0.0,0.0,0.0,0.0,0.0,0.0,0.0,-0.00779032614082098,-0.01877695322036743,0.014639646746218206,0.0,0.0,0.0,0.0,0.0,0.0,0.0,0.0,0.0,-1.1563584804534912,0.5600908398628236,9.62719249725342,0.0,0.0,0.0,0.0,0.0,0.0,0.0,0.0,0.0
2026/06/04 15:16:52.303236716,1780597012,302587619,imu_link,-0.048868943005800254,0.07160130143165588,0.6399973630905151,0.7634713053703309,0.0,0.0,0.0,0.0,0.0,0.0,0.0,0.0,0.0,-0.014297664165496826,-0.004687905777245761,0.004237145185470581,0.0,0.0,0.0,0.0,0.0,0.0,0.0,0.0,0.0,-1.1397129297256472,0.5263817310333252,9.642943382263185,0.0,0.0,0.0,0.0,0.0,0.0,0.0,0.0,0.0
2026/06/04 15:16:52.303507669,1780597012,302645909,imu_link,-0.04888781532645226,0.0715894103050232,0.6399991512298584,0.7634697556495668,0.0,0.0,0.0,0.0,0.0,0.0,0.0,0.0,0.0,-0.017786027863621715,0.002413243055343628,0.00031366944313049316,0.0,0.0,0.0,0.0,0.0,0.0,0.0,0.0,0.0,-1.1971096992492676,0.4434122741222382,9.641324996948242,0.0,0.0,0.0,0.0,0.0,0.0,0.0,0.0,0.0
2026/06/04 15:16:52.303920748,1780597012,302678933,imu_link,-0.048907697200775146,0.071579709649086,0.6400067806243896,0.763463020324707,0.0,0.0,0.0,0.0,0.0,0.0,0.0,0.0,0.0,-0.017818808555603027,0.0043369834311306485,0.00653490424156189,0.0,0.0,0.0,0.0,0.0,0.0,0.0,0.0,0.0,-1.29185152053833,0.27389386296272283,9.603260040283203,0.0,0.0,0.0,0.0,0.0,0.0,0.0,0.0,0.0
2026/06/04 15:16:52.304438279,1780597012,302710695,imu_link,-0.048920769244432456,0.0715773031115532,0.6400173902511597,0.7634536623954774,0.0,0.0,0.0,0.0,0.0,0.0,0.0,0.0,0.0,-0.01693814992904663,0.007206945680081844,0.007619708310812713,0.0,0.0,0.0,0.0,0.0,0.0,0.0,0.0,0.0,-1.3973259925842285,0.12741522490978244,9.534935951232912,0.0,0.0,0.0,0.0,0.0,0.0,0.0,0.0,0.0
2026/06/04 15:16:52.304949763,1780597012,302741063,imu_link,-0.04893560335040093,0.07157783955335618,0.6400282382965088,0.7634435892105103,0.0,0.0,0.0,0.0,0.0,0.0,0.0,0.0,0.0,-0.009806454181671143,0.00806823465973139,0.01091882586479187,0.0,0.0,0.0,0.0,0.0,0.0,0.0,0.0,0.0,-1.5184885263442995,0.012539926916360855,9.506838798522951,0.0,0.0,0.0,0.0,0.0,0.0,0.0,0.0,0.0
2026/06/04 15:16:52.313873025,1780597012,313362293,imu_link,-0.04894835501909256,0.07157614082098009,0.6400332450866699,0.7634387612342836,0.0,0.0,0.0,0.0,0.0,0.0,0.0,0.0,0.0,-0.009144840762019157,0.00556781841441989,0.004736333619803191,0.0,0.0,0.0,0.0,0.0,0.0,0.0,0.0,0.0,-1.5125412940979004,-0.00880717858672142,9.543159484863281,0.0,0.0,0.0,0.0,0.0,0.0,0.0,0.0,0.0
2026/06/04 15:16:52.314277895,1780597012,313421704,imu_link,-0.04895856603980065,0.07157634198665619,0.6400292515754701,0.7634415030479432,0.0,0.0,0.0,0.0,0.0,0.0,0.0,0.0,0.0,-0.00580400275066495,0.005350261926651001,-0.004445016849786044,0.0,0.0,0.0,0.0,0.0,0.0,0.0,0.0,0.0,-1.37503981590271,-0.014244529418647291,9.559756278991701,0.0,0.0,0.0,0.0,0.0,0.0,0.0,0.0,0.0
2026/06/04 15:16:52.314737455,1780597012,313455539,imu_link,-0.048958484083414085,0.07158820331096649,0.6400104165077211,0.7634559869766235,0.0,0.0,0.0,0.0,0.0,0.0,0.0,0.0,0.0,-0.0021472573280334473,0.009607523679733276,-0.0009432435617782177,0.0,0.0,0.0,0.0,0.0,0.0,0.0,0.0,0.0,-1.3305333852767947,-0.01981928385794163,9.546390533447266,0.0,0.0,0.0,0.0,0.0,0.0,0.0,0.0,0.0
2026/06/04 15:16:52.315107110,1780597012,313485916,imu_link,-0.04897171631455422,0.07160671055316925,0.6400265097618104,0.7634398937225342,0.0,0.0,0.0,0.0,0.0,0.0,0.0,0.0,0.0,-0.00016987325216177854,0.01836344599723816,0.01805648393929005,0.0,0.0,0.0,0.0,0.0,0.0,0.0,0.0,0.0,-1.321774959564209,0.03135997802019119,9.51236343383789,0.0,0.0,0.0,0.0,0.0,0.0,0.0,0.0,0.0
2026/06/04 15:16:52.324838778,1780597012,324164607,imu_link,-0.0489841215312481,0.07162920385599138,0.6400312781333924,0.7634329795837402,0.0,0.0,0.0,0.0,0.0,0.0,0.0,0.0,0.0,0.003384798765182495,0.020290168002247814,0.006622822489589454,0.0,0.0,0.0,0.0,0.0,0.0,0.0,0.0,0.0,-1.5424532890319824,0.05401240661740304,9.504812240600586,0.0,0.0,0.0,0.0,0.0,0.0,0.0,0.0,0.0
2026/06/04 15:16:52.325359674,1780597012,324227359,imu_link,-0.048997815698385246,0.07165402919054033,0.6400200724601747,0.7634391784667969,0.0,0.0,0.0,0.0,0.0,0.0,0.0,0.0,0.0,0.005223602522164584,0.022255629301071167,-0.009813905693590643,0.0,0.0,0.0,0.0,0.0,0.0,0.0,0.0,0.0,-1.514678955078125,0.17644451558589938,9.45309066772461,0.0,0.0,0.0,0.0,0.0,0.0,0.0,0.0,0.0
2026/06/04 15:16:52.325872243,1780597012,324263469,imu_link,-0.049012590199708946,0.07167670875787736,0.6401184797286987,0.7633534669876099,0.0,0.0,0.0,0.0,0.0,0.0,0.0,0.0,0.0,0.0024981792084872723,0.023748725652694702,0.01055374648422003,0.0,0.0,0.0,0.0,0.0,0.0,0.0,0.0,0.0,-1.509526610374451,0.32222604751586914,9.434847831726076,0.0,0.0,0.0,0.0,0.0,0.0,0.0,0.0,0.0
2026/06/04 15:16:52.326471947,1780597012,324299750,imu_link,-0.049028076231479645,0.07170477509498596,0.6401347517967225,0.763336181640625,0.0,0.0,0.0,0.0,0.0,0.0,0.0,0.0,0.0,0.003299862612038851,0.02541766129434109,0.018968436866998672,0.0,0.0,0.0,0.0,0.0,0.0,0.0,0.0,0.0,-1.5736453533172607,0.44501835107803345,9.514418601989748,0.0,0.0,0.0,0.0,0.0,0.0,0.0,0.0,0.0
2026/06/04 15:16:52.336100185,1780597012,335762682,imu_link,-0.04905382171273232,0.0717374011874199,0.640134334564209,0.7633318305015565,0.0,0.0,0.0,0.0,0.0,0.0,0.0,0.0,0.0,0.0008307399111799897,0.03336593508720398,0.0017665328923612833,0.0,0.0,0.0,0.0,0.0,0.0,0.0,0.0,0.0,-1.6556627750396729,0.5172763466835023,9.611371994018555,0.0,0.0,0.0,0.0,0.0,0.0,0.0,0.0,0.0
2026/06/04 15:16:52.336428657,1780597012,335797602,imu_link,-0.049087677150964744,0.0717601850628853,0.6401313543319702,0.7633300423622132,0.0,0.0,0.0,0.0,0.0,0.0,0.0,0.0,0.0,-0.008916854858398438,0.03146902099251748,-0.0019550323486328125,0.0,0.0,0.0,0.0,0.0,0.0,0.0,0.0,0.0,-1.583322525024414,0.5619416236877441,9.771544456481935,0.0,0.0,0.0,0.0,0.0,0.0,0.0,0.0,0.0
2026/06/04 15:16:52.336790962,1780597012,335817416,imu_link,-0.04911590367555618,0.071788989007473,0.6401441097259521,0.7633147835731507,0.0,0.0,0.0,0.0,0.0,0.0,0.0,0.0,0.0,-0.010266900062561035,0.035146623849868774,0.012319537810981275,0.0,0.0,0.0,0.0,0.0,0.0,0.0,0.0,0.0,-1.6023341417312624,0.46316263079643255,9.86434555053711,0.0,0.0,0.0,0.0,0.0,0.0,0.0,0.0,0.0
2026/06/04 15:16:52.337103276,1780597012,335836274,imu_link,-0.049155548214912415,0.07181761413812639,0.6401494741439819,0.7633050084114076,0.0,0.0,0.0,0.0,0.0,0.0,0.0,0.0,0.0,-0.010256470181047918,0.03812536597251892,0.007138401735574008,0.0,0.0,0.0,0.0,0.0,0.0,0.0,0.0,0.0,-1.8913589715957644,0.2809709310531616,9.893912315368654,0.0,0.0,0.0,0.0,0.0,0.0,0.0,0.0,0.0
2026/06/04 15:16:52.337438595,1780597012,335855120,imu_link,-0.04919080436229706,0.07183807343244554,0.6401503086090088,0.7633000612258911,0.0,0.0,0.0,0.0,0.0,0.0,0.0,0.0,0.0,-0.011304021812975408,0.030789528042078018,0.0018365683499723673,0.0,0.0,0.0,0.0,0.0,0.0,0.0,0.0,0.0,-2.0936455726623535,0.14354453980922702,9.87826442718506,0.0,0.0,0.0,0.0,0.0,0.0,0.0,0.0,0.0
2026/06/04 15:16:52.346511521,1780597012,346340029,imu_link,-0.049214418977499015,0.0718517154455185,0.6401638984680176,0.7632858753204346,0.0,0.0,0.0,0.0,0.0,0.0,0.0,0.0,0.0,-0.008779764175415039,0.02070442028343678,0.014721602201461792,0.0,0.0,0.0,0.0,0.0,0.0,0.0,0.0,0.0,-2.266651868820191,0.05529987812042236,9.833934783935547,0.0,0.0,0.0,0.0,0.0,0.0,0.0,0.0,0.0
2026/06/04 15:16:52.346781287,1780597012,346365588,imu_link,-0.049217958003282554,0.07185841351747514,0.6401728391647339,0.7632776498794556,0.0,0.0,0.0,0.0,0.0,0.0,0.0,0.0,0.0,-0.006189942825585605,0.008597225882112982,0.006779283285140991,0.0,0.0,0.0,0.0,0.0,0.0,0.0,0.0,0.0,-2.340672492980957,-0.0705653727054596,9.845372200012209,0.0,0.0,0.0,0.0,0.0,0.0,0.0,0.0,0.0
2026/06/04 15:16:52.347033556,1780597012,346381653,imu_link,-0.049224235117435455,0.07185176759958269,0.64016991853714,0.7632802724838257,0.0,0.0,0.0,0.0,0.0,0.0,0.0,0.0,0.0,-0.006976724136620761,-0.0008851289749145508,-0.0037297613453119998,0.0,0.0,0.0,0.0,0.0,0.0,0.0,0.0,0.0,-2.273107767105103,-0.11725616455078125,9.82992935180664,0.0,0.0,0.0,0.0,0.0,0.0,0.0,0.0,0.0
2026/06/04 15:16:52.347317486,1780597012,346397044,imu_link,-0.04921094700694085,0.07184547185897827,0.6401764154434204,0.763276219367981,0.0,0.0,0.0,0.0,0.0,0.0,0.0,0.0,0.0,0.004345924127846957,-0.01068115048110485,0.006560236215591431,0.0,0.0,0.0,0.0,0.0,0.0,0.0,0.0,0.0,-2.0833265781402592,-0.0621817409992218,9.821113586425781,0.0,0.0,0.0,0.0,0.0,0.0,0.0,0.0,0.0
2026/06/04 15:16:52.357594690,1780597012,357152811,imu_link,-0.04919645935297012,0.07183578610420227,0.6401930451393129,0.7632641196250917,0.0,0.0,0.0,0.0,0.0,0.0,0.0,0.0,0.0,0.0024430453777313232,-0.013299289159476759,0.016801804304122925,0.0,0.0,0.0,0.0,0.0,0.0,0.0,0.0,0.0,-2.0469028949737553,-0.010106065310537817,9.815165519714357,0.0,0.0,0.0,0.0,0.0,0.0,0.0,0.0,0.0
2026/06/04 15:16:52.358126194,1780597012,357207147,imu_link,-0.04916526749730111,0.0718304142355919,0.6401745676994325,0.7632823586463929,0.0,0.0,0.0,0.0,0.0,0.0,0.0,0.0,0.0,0.009316951036453247,-0.017605721950531006,-0.006526709068566562,0.0,0.0,0.0,0.0,0.0,0.0,0.0,0.0,0.0,-2.022267580032349,0.044706609100103385,9.73977279663086,0.0,0.0,0.0,0.0,0.0,0.0,0.0,0.0,0.0
2026/06/04 15:16:52.358556509,1780597012,357236024,imu_link,-0.04913755878806115,0.07181865721940996,0.6401690840721131,0.7632899284362793,0.0,0.0,0.0,0.0,0.0,0.0,0.0,0.0,0.0,0.011501463130116463,-0.021585823968052868,-0.00607073400169611,0.0,0.0,0.0,0.0,0.0,0.0,0.0,0.0,0.0,-1.8871132135391238,0.179253488779068,9.649850845336914,0.0,0.0,0.0,0.0,0.0,0.0,0.0,0.0,0.0
2026/06/04 15:16:52.358976054,1780597012,357266788,imu_link,-0.049109037965536124,0.07179955393075944,0.6401841640472412,0.7632809281349183,0.0,0.0,0.0,0.0,0.0,0.0,0.0,0.0,0.0,0.006399304140359164,-0.026351213455200195,0.014751404523849487,0.0,0.0,0.0,0.0,0.0,0.0,0.0,0.0,0.0,-1.7744560241699219,0.2951424717903137,9.579936981201172,0.0,0.0,0.0,0.0,0.0,0.0,0.0,0.0,0.0
2026/06/04 15:16:52.369563472,1780597012,369013737,imu_link,-0.04908452928066254,0.07178185135126115,0.6401934623718262,0.7632763385772705,0.0,0.0,0.0,0.0,0.0,0.0,0.0,0.0,0.0,0.005175917409360409,-0.02346933074295521,0.008746236562728882,0.0,0.0,0.0,0.0,0.0,0.0,0.0,0.0,0.0,-1.8114827871322634,0.44066524505615234,9.546523094177248,0.0,0.0,0.0,0.0,0.0,0.0,0.0,0.0,0.0
2026/06/04 15:16:52.370170072,1780597012,369109170,imu_link,-0.049040623009204865,0.0717754065990448,0.6399787664413452,0.7634595036506654,0.0,0.0,0.0,0.0,0.0,0.0,0.0,0.0,0.0,0.0006087124929763378,-0.02394765801727772,-0.007750093936920166,0.0,0.0,0.0,0.0,0.0,0.0,0.0,0.0,0.0,-1.7831451892852783,0.5728521347045898,9.531913757324219,0.0,0.0,0.0,0.0,0.0,0.0,0.0,0.0,0.0
2026/06/04 15:16:52.370847742,1780597012,369153802,imu_link,-0.0490223802626133,0.07175005227327348,0.6399824619293213,0.7634600400924683,0.0,0.0,0.0,0.0,0.0,0.0,0.0,0.0,0.0,-0.0020444395486265425,-0.025007128715515137,0.002037734026089311,0.0,0.0,0.0,0.0,0.0,0.0,0.0,0.0,0.0,-1.4625470638275146,0.656420111656189,9.605859756469727,0.0,0.0,0.0,0.0,0.0,0.0,0.0,0.0,0.0
2026/06/04 15:16:52.371387802,1780597012,369195498,imu_link,-0.04901301488280297,0.07172391563653947,0.6399958729743959,0.7634518146514893,0.0,0.0,0.0,0.0,0.0,0.0,0.0,0.0,0.0,-0.008761883713304998,-0.02081543207168579,0.011914223432540894,0.0,0.0,0.0,0.0,0.0,0.0,0.0,0.0,0.0,-1.3016488552093506,0.6131347417831421,9.677371025085451,0.0,0.0,0.0,0.0,0.0,0.0,0.0,0.0,0.0
2026/06/04 15:16:52.371995899,1780597012,369234735,imu_link,-0.04901791363954544,0.07170609384775163,0.6400004029273988,0.7634494304656982,0.0,0.0,0.0,0.0,0.0,0.0,0.0,0.0,0.0,-0.012484193779528143,-0.008425116539001465,0.0029943881090730433,0.0,0.0,0.0,0.0,0.0,0.0,0.0,0.0,0.0,-1.2887063026428223,0.5070849061012269,9.718604087829592,0.0,0.0,0.0,0.0,0.0,0.0,0.0,0.0,0.0
2026/06/04 15:16:52.379349658,1780597012,378764985,imu_link,-0.04900838807225228,0.07169562578201294,0.6398868560791016,0.763546347618103,0.0,0.0,0.0,0.0,0.0,0.0,0.0,0.0,0.0,-0.017362834885716442,-0.009007752873003485,0.007531791925430298,0.0,0.0,0.0,0.0,0.0,0.0,0.0,0.0,0.0,-1.3701798915863037,0.4006242454051972,9.713459968566896,0.0,0.0,0.0,0.0,0.0,0.0,0.0,0.0,0.0
2026/06/04 15:16:52.379916060,1780597012,378825630,imu_link,-0.049011331051588065,0.07167886197566986,0.6398996114730835,0.7635369896888734,0.0,0.0,0.0,0.0,0.0,0.0,0.0,0.0,0.0,-0.011490286327898504,-0.0087052583694458,0.011774153448641302,0.0,0.0,0.0,0.0,0.0,0.0,0.0,0.0,0.0,-1.4353500604629519,0.21078963577747348,9.639395713806154,0.0,0.0,0.0,0.0,0.0,0.0,0.0,0.0,0.0
2026/06/04 15:16:52.380447903,1780597012,378863021,imu_link,-0.049018532037734985,0.07166128605604173,0.6399013996124268,0.7635366320610047,0.0,0.0,0.0,0.0,0.0,0.0,0.0,0.0,0.0,-0.013527274131774902,-0.00710785435512662,0.00021234156156424436,0.0,0.0,0.0,0.0,0.0,0.0,0.0,0.0,0.0,-1.480790376663208,0.053988344967365265,9.586219787597656,0.0,0.0,0.0,0.0,0.0,0.0,0.0,0.0,0.0
2026/06/04 15:16:52.380935806,1780597012,378896932,imu_link,-0.049020562320947654,0.07164169102907182,0.6399036049842836,0.7635364532470703,0.0,0.0,0.0,0.0,0.0,0.0,0.0,0.0,0.0,-0.011420251801609993,-0.011013451032340528,0.0005729497643187642,0.0,0.0,0.0,0.0,0.0,0.0,0.0,0.0,0.0,-1.4588829278945925,-0.027569126337766647,9.537116050720217,0.0,0.0,0.0,0.0,0.0,0.0,0.0,0.0,0.0
2026/06/04 15:16:52.388750382,1780597012,388401694,imu_link,-0.04900458827614785,0.07163204252719879,0.6398991346359253,0.7635420560836792,0.0,0.0,0.0,0.0,0.0,0.0,0.0,0.0,0.0,-0.005476177204400302,-0.01192689035087824,0.01657828688621521,0.0,0.0,0.0,0.0,0.0,0.0,0.0,0.0,0.0,-1.4250566959381104,-0.06349048763513566,9.511441230773928,0.0,0.0,0.0,0.0,0.0,0.0,0.0,0.0,0.0
2026/06/04 15:16:52.389124824,1780597012,388444985,imu_link,-0.04900356754660607,0.07162036746740343,0.639900028705597,0.7635424733161927,0.0,0.0,0.0,0.0,0.0,0.0,0.0,0.0,0.0,-0.005397200584411621,-0.007717311847954989,-6.854534149169922e-05,0.0,0.0,0.0,0.0,0.0,0.0,0.0,0.0,0.0,-1.4628483057022097,-0.04654860123991967,9.505133628845217,0.0,0.0,0.0,0.0,0.0,0.0,0.0,0.0,0.0
2026/06/04 15:16:52.389475531,1780597012,388469482,imu_link,-0.04901194199919701,0.07161447405815125,0.6398927569389344,0.7635485529899598,0.0,0.0,0.0,0.0,0.0,0.0,0.0,0.0,0.0,-0.007487834431231022,0.0006206334219314159,-0.008229912258684637,0.0,0.0,0.0,0.0,0.0,0.0,0.0,0.0,0.0,-1.350130915641785,-0.02528723515570164,9.499404907226562,0.0,0.0,0.0,0.0,0.0,0.0,0.0,0.0,0.0
2026/06/04 15:16:52.389842435,1780597012,388492101,imu_link,-0.04900902509689331,0.07162004709243774,0.6398981213569642,0.7635437250137329,0.0,0.0,0.0,0.0,0.0,0.0,0.0,0.0,0.0,0.004128366708755493,0.001975149149075151,0.006114691495895386,0.0,0.0,0.0,0.0,0.0,0.0,0.0,0.0,0.0,-1.2925138473510742,0.00419460004195571,9.484023094177248,0.0,0.0,0.0,0.0,0.0,0.0,0.0,0.0,0.0
2026/06/04 15:16:52.400292188,1780597012,400111573,imu_link,-0.04900577291846276,0.07163342088460924,0.6399132013320923,0.7635300755500795,0.0,0.0,0.0,0.0,0.0,0.0,0.0,0.0,0.0,0.001148134469985962,0.008922070264816284,0.014004857279360296,0.0,0.0,0.0,0.0,0.0,0.0,0.0,0.0,0.0,-1.3274831771850586,0.12948729097843173,9.482044219970703,0.0,0.0,0.0,0.0,0.0,0.0,0.0,0.0,0.0
2026/06/04 15:16:52.400559273,1780597012,400136624,imu_link,-0.04900926351547241,0.07165083289146423,0.639916479587555,0.763525426387787,0.0,0.0,0.0,0.0,0.0,0.0,0.0,0.0,0.0,0.0063933446072042,0.012551993131637573,0.004906207788735629,0.0,0.0,0.0,0.0,0.0,0.0,0.0,0.0,0.0,-1.4873583316802979,0.22833594679832458,9.454343795776367,0.0,0.0,0.0,0.0,0.0,0.0,0.0,0.0,0.0
2026/06/04 15:16:52.400752283,1780597012,400151463,imu_link,-0.049017820507287986,0.0716681554913521,0.6399148106575013,0.7635246515274048,0.0,0.0,0.0,0.0,0.0,0.0,0.0,0.0,0.0,0.0036932528018951416,0.015067310072481634,-0.000429153471486643,0.0,0.0,0.0,0.0,0.0,0.0,0.0,0.0,0.0,-1.4961708784103396,0.42356476187706,9.454714775085451,0.0,0.0,0.0,0.0,0.0,0.0,0.0,0.0,0.0
2026/06/04 15:16:52.400966396,1780597012,400164711,imu_link,-0.049036458134651184,0.07168512046337128,0.6399196982383729,0.7635177969932557,0.0,0.0,0.0,0.0,0.0,0.0,0.0,0.0,0.0,-0.0032573938369750977,0.020105393603444103,0.006128102540969849,0.0,0.0,0.0,0.0,0.0,0.0,0.0,0.0,0.0,-1.4764262437820437,0.5558653473854066,9.563900947570803,0.0,0.0,0.0,0.0,0.0,0.0,0.0,0.0,0.0
2026/06/04 15:16:52.401251998,1780597012,400177526,imu_link,-0.04905499517917633,0.07170710712671281,0.6399275064468384,0.7635080814361572,0.0,0.0,0.0,0.0,0.0,0.0,0.0,0.0,0.0,-0.007143617141991855,0.02576038427650929,0.006692856550216675,0.0,0.0,0.0,0.0,0.0,0.0,0.0,0.0,0.0,-1.4689379930496218,0.5517432689666748,9.66809940338135,0.0,0.0,0.0,0.0,0.0,0.0,0.0,0.0,0.0
2026/06/04 15:16:52.411012644,1780597012,410823849,imu_link,-0.04908306896686554,0.07172682136297227,0.6399336457252504,0.7634993195533754,0.0,0.0,0.0,0.0,0.0,0.0,0.0,0.0,0.0,-0.007760526146739722,0.02667233720421791,0.007381291594356299,0.0,0.0,0.0,0.0,0.0,0.0,0.0,0.0,0.0,-1.537964105606079,0.5838450193405151,9.777765274047852,0.0,0.0,0.0,0.0,0.0,0.0,0.0,0.0,0.0
2026/06/04 15:16:52.411452990,1780597012,410847902,imu_link,-0.04911937564611435,0.07174549996852875,0.639938473701477,0.7634910941123964,0.0,0.0,0.0,0.0,0.0,0.0,0.0,0.0,0.0,-0.013224780559539795,0.03026649542152882,0.005780905019491912,0.0,0.0,0.0,0.0,0.0,0.0,0.0,0.0,0.0,-1.7207369804382324,0.4596328437328339,9.838490486145021,0.0,0.0,0.0,0.0,0.0,0.0,0.0,0.0,0.0
2026/06/04 15:16:52.411535434,1780597012,410861110,imu_link,-0.04915923625230789,0.07176148146390916,0.6399402618408203,0.7634855508804321,0.0,0.0,0.0,0.0,0.0,0.0,0.0,0.0,0.0,-0.016497077420353893,0.030409544706344604,0.0022687020245939498,0.0,0.0,0.0,0.0,0.0,0.0,0.0,0.0,0.0,-1.8221970796585085,0.3401353359222412,9.898013114929201,0.0,0.0,0.0,0.0,0.0,0.0,0.0,0.0,0.0
2026/06/04 15:16:52.411719754,1780597012,410873502,imu_link,-0.049180030822753906,0.07178113609552385,0.6399028301239014,0.7635138034820557,0.0,0.0,0.0,0.0,0.0,0.0,0.0,0.0,0.0,-0.013840201310813429,0.02596155367791653,0.0057764360681176186,0.0,0.0,0.0,0.0,0.0,0.0,0.0,0.0,0.0,-1.9383840560913086,0.12402273714542389,9.841845512390138,0.0,0.0,0.0,0.0,0.0,0.0,0.0,0.0,0.0
2026/06/04 15:16:52.422787351,1780597012,422592670,imu_link,-0.04920527711510659,0.07178804278373718,0.6399226188659668,0.7634949684143066,0.0,0.0,0.0,0.0,0.0,0.0,0.0,0.0,0.0,-0.01377463433891535,0.017442554235458374,0.02056434936821461,0.0,0.0,0.0,0.0,0.0,0.0,0.0,0.0,0.0,-2.0851109027862553,0.04084816202521325,9.83107662200928,0.0,0.0,0.0,0.0,0.0,0.0,0.0,0.0,0.0
2026/06/04 15:16:52.423012977,1780597012,422613312,imu_link,-0.04921791329979897,0.07179256528615953,0.6399296522140503,0.7634878158569336,0.0,0.0,0.0,0.0,0.0,0.0,0.0,0.0,0.0,-0.006102024577558041,0.009360165335237982,0.007440895307809115,0.0,0.0,0.0,0.0,0.0,0.0,0.0,0.0,0.0,-2.2223877906799316,-0.07151485234498979,9.821361541748047,0.0,0.0,0.0,0.0,0.0,0.0,0.0,0.0,0.0
2026/06/04 15:16:52.423263162,1780597012,422625455,imu_link,-0.04922513663768768,0.07178926467895508,0.6399248838424683,0.7634916901588441,0.0,0.0,0.0,0.0,0.0,0.0,0.0,0.0,0.0,-0.00568628404289484,0.0016458336031064393,-0.00543743371963501,0.0,0.0,0.0,0.0,0.0,0.0,0.0,0.0,0.0,-2.1473565101623535,-0.04811406135559082,9.770647048950195,0.0,0.0,0.0,0.0,0.0,0.0,0.0,0.0,0.0
2026/06/04 15:16:52.423483393,1780597012,422636872,imu_link,-0.049230411648750305,0.07177038490772247,0.6401485800743104,0.7633054256439209,0.0,0.0,0.0,0.0,0.0,0.0,0.0,0.0,0.0,-0.0021219255868345503,-0.00789016578346491,0.004541127942502499,0.0,0.0,0.0,0.0,0.0,0.0,0.0,0.0,0.0,-1.9754164218902588,-0.034719105809926994,9.732690811157227,0.0,0.0,0.0,0.0,0.0,0.0,0.0,0.0,0.0
2026/06/04 15:16:52.423698360,1780597012,422648381,imu_link,-0.04921960085630417,0.07176011800765991,0.6401615738868714,0.7632961869239808,0.0,0.0,0.0,0.0,0.0,0.0,0.0,0.0,0.0,0.00022575260663870725,-0.011786818504333496,0.01286789868026972,0.0,0.0,0.0,0.0,0.0,0.0,0.0,0.0,0.0,-1.8755674362182617,-0.014072397723793983,9.71635150909424,0.0,0.0,0.0,0.0,0.0,0.0,0.0,0.0,0.0
2026/06/04 15:16:52.433597204,1780597012,433374134,imu_link,-0.04920371994376183,0.07175090909004211,0.6401647329330444,0.7632954120635986,0.0,0.0,0.0,0.0,0.0,0.0,0.0,0.0,0.0,0.004754215478897095,-0.013840201310813429,0.002891571028158069,0.0,0.0,0.0,0.0,0.0,0.0,0.0,0.0,0.0,-1.8686048984527588,0.06447751820087433,9.66140365600586,0.0,0.0,0.0,0.0,0.0,0.0,0.0,0.0,0.0
2026/06/04 15:16:52.433865335,1780597012,433400351,imu_link,-0.049188215285539634,0.07173771411180498,0.6401575803756714,0.7633036375045776,0.0,0.0,0.0,0.0,0.0,0.0,0.0,0.0,0.0,0.0034354629460722212,-0.01619011163711548,-0.008223951794207098,0.0,0.0,0.0,0.0,0.0,0.0,0.0,0.0,0.0,-1.7110079526901247,0.1554960310459137,9.583183288574219,0.0,0.0,0.0,0.0,0.0,0.0,0.0,0.0,0.0
2026/06/04 15:16:52.434127009,1780597012,433413862,imu_link,-0.0491614043712616,0.0717286467552185,0.6401695013046265,0.7632964253425599,0.0,0.0,0.0,0.0,0.0,0.0,0.0,0.0,0.0,0.00458285165950656,-0.017455218359828,0.00949576310813427,0.0,0.0,0.0,0.0,0.0,0.0,0.0,0.0,0.0,-1.5626986026763916,0.23441636562347412,9.52734375,0.0,0.0,0.0,0.0,0.0,0.0,0.0,0.0,0.0
2026/06/04 15:16:52.434363144,1780597012,433426172,imu_link,-0.04914773255586624,0.07172607630491258,0.6401723623275757,0.7632951736450195,0.0,0.0,0.0,0.0,0.0,0.0,0.0,0.0,0.0,0.0068105761893093595,-0.008618831634521484,0.0030346217099577193,0.0,0.0,0.0,0.0,0.0,0.0,0.0,0.0,0.0,-1.5819628238677979,0.3414696455001831,9.482030868530273,0.0,0.0,0.0,0.0,0.0,0.0,0.0,0.0,0.0
2026/06/04 15:16:52.444327855,1780597012,444122967,imu_link,-0.04913962632417679,0.07172087579965593,0.640170991420746,0.7632973790168763,0.0,0.0,0.0,0.0,0.0,0.0,0.0,0.0,0.0,0.0024355947971343994,-0.007399917114526034,-0.0016763807507231834,0.0,0.0,0.0,0.0,0.0,0.0,0.0,0.0,0.0,-1.4808353185653689,0.46804332733154297,9.476637840270998,0.0,0.0,0.0,0.0,0.0,0.0,0.0,0.0,0.0
2026/06/04 15:16:52.444580742,1780597012,444145432,imu_link,-0.04913273826241494,0.07171481102705003,0.6401804089546205,0.7632904648780824,0.0,0.0,0.0,0.0,0.0,0.0,0.0,0.0,0.0,0.0002779066562652588,-0.007209182251244784,0.009446591138839722,0.0,0.0,0.0,0.0,0.0,0.0,0.0,0.0,0.0,-1.3597302436828613,0.570407509803772,9.549140930175781,0.0,0.0,0.0,0.0,0.0,0.0,0.0,0.0,0.0
2026/06/04 15:16:52.444802839,1780597012,444152670,imu_link,-0.049130324274301536,0.0717172771692276,0.6401861906051636,0.7632853984832764,0.0,0.0,0.0,0.0,0.0,0.0,0.0,0.0,0.0,-0.004081428516656161,0.0022955241147428755,0.003684312105178833,0.0,0.0,0.0,0.0,0.0,0.0,0.0,0.0,0.0,-1.3007668256759646,0.5252689123153687,9.649966239929201,0.0,0.0,0.0,0.0,0.0,0.0,0.0,0.0,0.0
2026/06/04 15:16:52.445011579,1780597012,444159903,imu_link,-0.04914524033665658,0.0717175528407097,0.6401821374893188,0.7632877826690674,0.0,0.0,0.0,0.0,0.0,0.0,0.0,0.0,0.0,-0.008647144772112371,0.007826834917068481,-0.004559755790978671,0.0,0.0,0.0,0.0,0.0,0.0,0.0,0.0,0.0,-1.3368633985519411,0.3931426405906677,9.66353988647461,0.0,0.0,0.0,0.0,0.0,0.0,0.0,0.0,0.0
2026/06/04 15:16:52.456235308,1780597012,455938008,imu_link,-0.049161303788423545,0.07172150164842607,0.6401908993721009,0.7632790803909302,0.0,0.0,0.0,0.0,0.0,0.0,0.0,0.0,0.0,-0.008642672561109068,0.01079067587852478,0.00904574990272522,0.0,0.0,0.0,0.0,0.0,0.0,0.0,0.0,0.0,-1.3273385763168337,0.3628844618797302,9.68937397003174,0.0,0.0,0.0,0.0,0.0,0.0,0.0,0.0,0.0
2026/06/04 15:16:52.456638465,1780597012,455956289,imu_link,-0.049176562577486045,0.0717274397611618,0.640209436416626,0.7632619738578797,0.0,0.0,0.0,0.0,0.0,0.0,0.0,0.0,0.0,-0.008022785186767578,0.0116862365975976,0.019427388906478882,0.0,0.0,0.0,0.0,0.0,0.0,0.0,0.0,0.0,-1.5114896297454834,0.19836246967315674,9.692438125610352,0.0,0.0,0.0,0.0,0.0,0.0,0.0,0.0,0.0
2026/06/04 15:16:52.456988181,1780597012,455968888,imu_link,-0.049173269420862205,0.07174453139305115,0.6400420665740967,0.7634009122848511,0.0,0.0,0.0,0.0,0.0,0.0,0.0,0.0,0.0,-0.009673833847045898,0.012340398505330086,-0.002984703285619617,0.0,0.0,0.0,0.0,0.0,0.0,0.0,0.0,0.0,-1.7223961353302002,0.0708257630467415,9.67411518096924,0.0,0.0,0.0,0.0,0.0,0.0,0.0,0.0,0.0
2026/06/04 15:16:52.457343395,1780597012,455996712,imu_link,-0.04917985945940018,0.07174816727638245,0.6400364041328431,0.7634049057960511,0.0,0.0,0.0,0.0,0.0,0.0,0.0,0.0,0.0,-0.0016927720280364158,0.005582720041275024,-0.0057324771769344815,0.0,0.0,0.0,0.0,0.0,0.0,0.0,0.0,0.0,-1.666703462600708,0.011403443291783333,9.595179557800295,0.0,0.0,0.0,0.0,0.0,0.0,0.0,0.0,0.0
2026/06/04 15:16:52.457712294,1780597012,456010319,imu_link,-0.04918160662055016,0.07175124436616899,0.6400521993637085,0.7633912563323975,0.0,0.0,0.0,0.0,0.0,0.0,0.0,0.0,0.0,-0.000953674374613911,0.002928823232650757,0.016690045595169067,0.0,0.0,0.0,0.0,0.0,0.0,0.0,0.0,0.0,-1.606893539428711,-0.029734345152974132,9.609687805175781,0.0,0.0,0.0,0.0,0.0,0.0,0.0,0.0,0.0
2026/06/04 15:16:52.466158118,1780597012,465576675,imu_link,-0.04918245598673821,0.0717570036649704,0.640063226222992,0.7633814215660096,0.0,0.0,0.0,0.0,0.0,0.0,0.0,0.0,0.0,0.001395493862219155,0.004076212644577026,0.011949987150728704,0.0,0.0,0.0,0.0,0.0,0.0,0.0,0.0,0.0,-1.694563388824463,-0.020181450992822647,9.603672981262209,0.0,0.0,0.0,0.0,0.0,0.0,0.0,0.0,0.0
2026/06/04 15:16:52.466793068,1780597012,465614612,imu_link,-0.04916567727923394,0.07177400588989258,0.6399118900299072,0.7635077238082886,0.0,0.0,0.0,0.0,0.0,0.0,0.0,0.0,0.0,0.000772625266108662,0.005234033335000277,-0.0064566731452941895,0.0,0.0,0.0,0.0,0.0,0.0,0.0,0.0,0.0,-1.7715517282485964,-0.011001143604516983,9.602713584899904,0.0,0.0,0.0,0.0,0.0,0.0,0.0,0.0,0.0
2026/06/04 15:16:52.467381108,1780597012,465641846,imu_link,-0.04916207119822503,0.07177822291851044,0.6399134993553163,0.7635061740875244,0.0,0.0,0.0,0.0,0.0,0.0,0.0,0.0,0.0,0.004193932283669711,0.00074729323387146,0.00214055203832686,0.0,0.0,0.0,0.0,0.0,0.0,0.0,0.0,0.0,-1.6177349090576172,0.1183886304497719,9.58547115325928,0.0,0.0,0.0,0.0,0.0,0.0,0.0,0.0,0.0
2026/06/04 15:16:52.467929112,1780597012,465667734,imu_link,-0.049156408756971366,0.07179106026887895,0.6399257183074951,0.7634950876235962,0.0,0.0,0.0,0.0,0.0,0.0,0.0,0.0,0.0,0.008884818293154241,0.005090981721878052,0.013913959264755249,0.0,0.0,0.0,0.0,0.0,0.0,0.0,0.0,0.0,-1.6068648099899294,0.22991374135017395,9.593079566955568,0.0,0.0,0.0,0.0,0.0,0.0,0.0,0.0,0.0
2026/06/04 15:16:52.476770081,1780597012,476375151,imu_link,-0.04915567860007287,0.0718054845929146,0.6399303078651429,0.7634899020195008,0.0,0.0,0.0,0.0,0.0,0.0,0.0,0.0,0.0,0.007345528807491065,0.008548052981495857,0.006095321383327247,0.0,0.0,0.0,0.0,0.0,0.0,0.0,0.0,0.0,-1.7138086557388308,0.36376640200614935,9.571890830993654,0.0,0.0,0.0,0.0,0.0,0.0,0.0,0.0,0.0
2026/06/04 15:16:52.477465922,1780597012,476416744,imu_link,-0.049140095710754395,0.07182372361421586,0.6398426294326782,0.7635626196861268,0.0,0.0,0.0,0.0,0.0,0.0,0.0,0.0,0.0,0.004751235712319613,0.006317347753793002,0.0025890767574310303,0.0,0.0,0.0,0.0,0.0,0.0,0.0,0.0,0.0,-1.7719321250915527,0.543720006942749,9.61121463775635,0.0,0.0,0.0,0.0,0.0,0.0,0.0,0.0,0.0
2026/06/04 15:16:52.477802318,1780597012,476445031,imu_link,-0.04914659634232522,0.0718211829662323,0.6398498415946962,0.7635563611984253,0.0,0.0,0.0,0.0,0.0,0.0,0.0,0.0,0.0,-0.005944073665887118,0.0018440189305692911,0.007141382899135352,0.0,0.0,0.0,0.0,0.0,0.0,0.0,0.0,0.0,-1.7291169166564941,0.6034196615219116,9.688355445861818,0.0,0.0,0.0,0.0,0.0,0.0,0.0,0.0,0.0
2026/06/04 15:16:52.478436387,1780597012,476474556,imu_link,-0.049158282577991486,0.07182097434997559,0.6398500204086304,0.7635554671287538,0.0,0.0,0.0,0.0,0.0,0.0,0.0,0.0,0.0,-0.00730156945064664,0.005889683961868286,-0.00014901161193847656,0.0,0.0,0.0,0.0,0.0,0.0,0.0,0.0,0.0,-1.6708388328552246,0.5683537721633911,9.782442092895508,0.0,0.0,0.0,0.0,0.0,0.0,0.0,0.0,0.0
2026/06/04 15:16:52.484424532,1780597012,483990449,imu_link,-0.04917479306459427,0.07181511074304582,0.6398494243621826,0.7635555267333984,0.0,0.0,0.0,0.0,0.0,0.0,0.0,0.0,0.0,-0.01306682825088501,0.004888326395303012,-0.0015437602996826172,0.0,0.0,0.0,0.0,0.0,0.0,0.0,0.0,0.0,-1.6927748918533327,0.47534081339836126,9.843940734863281,0.0,0.0,0.0,0.0,0.0,0.0,0.0,0.0,0.0
2026/06/04 15:16:52.485355452,1780597012,484080501,imu_link,-0.04917874187231064,0.07181408256292345,0.6398221254348755,0.7635784149169922,0.0,0.0,0.0,0.0,0.0,0.0,0.0,0.0,0.0,-0.014741717837750913,0.004283338319510222,0.014168767258524895,0.0,0.0,0.0,0.0,0.0,0.0,0.0,0.0,0.0,-1.786682724952698,0.35344079136848455,9.880513191223146,0.0,0.0,0.0,0.0,0.0,0.0,0.0,0.0,0.0
2026/06/04 15:16:52.485939326,1780597012,484110374,imu_link,-0.04919721558690072,0.07180233299732208,0.6398286819458008,0.7635728120803833,0.0,0.0,0.0,0.0,0.0,0.0,0.0,0.0,0.0,-0.017905235290527344,0.0023402275983244185,0.005339831113815308,0.0,0.0,0.0,0.0,0.0,0.0,0.0,0.0,0.0,-1.9690107107162478,0.21728365123271945,9.887574195861818,0.0,0.0,0.0,0.0,0.0,0.0,0.0,0.0,0.0
2026/06/04 15:16:52.495291460,1780597012,494784532,imu_link,-0.04920722171664239,0.07178629189729692,0.6398252248764038,0.7635766267776489,0.0,0.0,0.0,0.0,0.0,0.0,0.0,0.0,0.0,-0.013989211060106756,-0.0047653913497924805,-0.005255639553070068,0.0,0.0,0.0,0.0,0.0,0.0,0.0,0.0,0.0,-1.9810706377029421,0.056517008692026145,9.825636863708498,0.0,0.0,0.0,0.0,0.0,0.0,0.0,0.0,0.0
2026/06/04 15:16:52.495890829,1780597012,494826095,imu_link,-0.04920345172286034,0.07176950573921204,0.6398323178291322,0.7635725140571595,0.0,0.0,0.0,0.0,0.0,0.0,0.0,0.0,0.0,-0.0068709258921444425,-0.012232363224029541,0.005991011392325164,0.0,0.0,0.0,0.0,0.0,0.0,0.0,0.0,0.0,-1.9018527269363406,-0.028225116431713104,9.774290084838867,0.0,0.0,0.0,0.0,0.0,0.0,0.0,0.0,0.0
2026/06/04 15:16:52.496401118,1780597012,494852401,imu_link,-0.04918921366333962,0.07175422459840776,0.6398510932922363,0.7635589838027954,0.0,0.0,0.0,0.0,0.0,0.0,0.0,0.0,0.0,-0.0073999157175421715,-0.014384090900421143,0.015734883025288585,0.0,0.0,0.0,0.0,0.0,0.0,0.0,0.0,0.0,-1.875481367111206,-0.070797897875309,9.76085090637207,0.0,0.0,0.0,0.0,0.0,0.0,0.0,0.0,0.0
2026/06/04 15:16:52.496910472,1780597012,494877192,imu_link,-0.04918352887034417,0.07173147052526475,0.6398602724075317,0.7635537385940552,0.0,0.0,0.0,0.0,0.0,0.0,0.0,0.0,0.0,-0.008924303576350212,-0.016875563189387325,0.007780641317367554,0.0,0.0,0.0,0.0,0.0,0.0,0.0,0.0,0.0,-1.9010044336318972,-0.024306664243340496,9.667309761047365,0.0,0.0,0.0,0.0,0.0,0.0,0.0,0.0,0.0
2026/06/04 15:16:52.506175346,1780597012,505586149,imu_link,-0.04916341975331307,0.07170742005109788,0.6398573517799379,0.7635596990585327,0.0,0.0,0.0,0.0,0.0,0.0,0.0,0.0,0.0,0.0003598630137275905,-0.025218725204467773,-0.004620849154889584,0.0,0.0,0.0,0.0,0.0,0.0,0.0,0.0,0.0,-1.7371337413787842,0.025451652705669403,9.582390785217287,0.0,0.0,0.0,0.0,0.0,0.0,0.0,0.0,0.0
2026/06/04 15:16:52.506795545,1780597012,505631399,imu_link,-0.04914501681923867,0.0716894492506981,0.6398642063140869,0.7635568976402284,0.0,0.0,0.0,0.0,0.0,0.0,0.0,0.0,0.0,0.0015236434992402792,-0.020506979897618297,0.005980581045150757,0.0,0.0,0.0,0.0,0.0,0.0,0.0,0.0,0.0,-1.5921459197998047,0.0313645601272583,9.55351448059082,0.0,0.0,0.0,0.0,0.0,0.0,0.0,0.0,0.0
2026/06/04 15:16:52.507344925,1780597012,505664509,imu_link,-0.0491161122918129,0.07167579233646393,0.63987535238266,0.7635509967803955,0.0,0.0,0.0,0.0,0.0,0.0,0.0,0.0,0.0,0.0035040080547332764,-0.02127736806869507,0.008157641626894476,0.0,0.0,0.0,0.0,0.0,0.0,0.0,0.0,0.0,-1.5193870067596436,0.12206526100635529,9.495004653930664,0.0,0.0,0.0,0.0,0.0,0.0,0.0,0.0,0.0
2026/06/04 15:16:52.507893503,1780597012,505704379,imu_link,-0.049102690070867545,0.07166703045368195,0.639881193637848,0.7635477781295776,0.0,0.0,0.0,0.0,0.0,0.0,0.0,0.0,0.0,0.0032432377338409424,-0.01227408740669489,0.005611032247543335,0.0,0.0,0.0,0.0,0.0,0.0,0.0,0.0,0.0,-1.475804090499878,0.23594093322753906,9.441180229187013,0.0,0.0,0.0,0.0,0.0,0.0,0.0,0.0,0.0
2026/06/04 15:16:52.508473977,1780597012,505736168,imu_link,-0.04909025505185128,0.07166177034378052,0.6398818492889404,0.7635484933853149,0.0,0.0,0.0,0.0,0.0,0.0,0.0,0.0,0.0,0.004886835347861052,-0.009651480242609978,0.0004969536093994975,0.0,0.0,0.0,0.0,0.0,0.0,0.0,0.0,0.0,-1.4037469625473025,0.3880003094673157,9.445410728454592,0.0,0.0,0.0,0.0,0.0,0.0,0.0,0.0,0.0
2026/06/04 15:16:52.516812321,1780597012,516321020,imu_link,-0.049089305102825165,0.07165828347206116,0.6398797035217285,0.7635506391525269,0.0,0.0,0.0,0.0,0.0,0.0,0.0,0.0,0.0,-0.0010088086128234863,-0.002658367389813066,-0.002487003803253174,0.0,0.0,0.0,0.0,0.0,0.0,0.0,0.0,0.0,-1.2969133853912354,0.5049384832382202,9.478269577026367,0.0,0.0,0.0,0.0,0.0,0.0,0.0,0.0,0.0
2026/06/04 15:16:52.517406588,1780597012,516370168,imu_link,-0.049076896160840995,0.07166889309883118,0.6397826075553895,0.7636317014694214,0.0,0.0,0.0,0.0,0.0,0.0,0.0,0.0,0.0,-0.002168118953704834,0.0029809772968292236,0.002936274511739612,0.0,0.0,0.0,0.0,0.0,0.0,0.0,0.0,0.0,-1.1806918382644656,0.5384017825126649,9.486598014831545,0.0,0.0,0.0,0.0,0.0,0.0,0.0,0.0,0.0
2026/06/04 15:16:52.517940946,1780597012,516399589,imu_link,-0.04908905178308487,0.07167764753103258,0.6397994160652162,0.7636159658432007,0.0,0.0,0.0,0.0,0.0,0.0,0.0,0.0,0.0,-0.004537403583526611,0.011802465654909612,0.017949193716049194,0.0,0.0,0.0,0.0,0.0,0.0,0.0,0.0,0.0,-1.142616152763367,0.5434418320655824,9.55290412902832,0.0,0.0,0.0,0.0,0.0,0.0,0.0,0.0,0.0
2026/06/04 15:16:52.518477099,1780597012,516428497,imu_link,-0.04911560937762261,0.07168676704168321,0.6398090124130249,0.7636053562164307,0.0,0.0,0.0,0.0,0.0,0.0,0.0,0.0,0.0,-0.012534859590232374,0.019394610077142715,0.010142477229237556,0.0,0.0,0.0,0.0,0.0,0.0,0.0,0.0,0.0,-1.34830641746521,0.4688926041126252,9.62490749359131,0.0,0.0,0.0,0.0,0.0,0.0,0.0,0.0,0.0
2026/06/04 15:16:52.527526073,1780597012,527144164,imu_link,-0.04914601892232895,0.07170170545578003,0.6398019194602967,0.7636079788208008,0.0,0.0,0.0,0.0,0.0,0.0,0.0,0.0,0.0,-0.010436773300170898,0.024814160540699962,-0.0068128108978271484,0.0,0.0,0.0,0.0,0.0,0.0,0.0,0.0,0.0,-1.4195995330810547,0.38272026181221014,9.627169609069826,0.0,0.0,0.0,0.0,0.0,0.0,0.0,0.0,0.0
2026/06/04 15:16:52.527948852,1780597012,527190430,imu_link,-0.04917877912521362,0.07170528173446655,0.6399682760238647,0.7634659409523011,0.0,0.0,0.0,0.0,0.0,0.0,0.0,0.0,0.0,-0.013141334056854248,0.020977109670639038,0.010151416994631292,0.0,0.0,0.0,0.0,0.0,0.0,0.0,0.0,0.0,-1.4240484237670898,0.23742322623729709,9.625153541564943,0.0,0.0,0.0,0.0,0.0,0.0,0.0,0.0,0.0
2026/06/04 15:16:52.528499551,1780597012,527216851,imu_link,-0.04920522496104241,0.071721188724041,0.639985501766205,0.7634483575820923,0.0,0.0,0.0,0.0,0.0,0.0,0.0,0.0,0.0,-0.009702146053314209,0.023584811016917232,0.018637627363204956,0.0,0.0,0.0,0.0,0.0,0.0,0.0,0.0,0.0,-1.55577027797699,0.07925542443990709,9.659271240234375,0.0,0.0,0.0,0.0,0.0,0.0,0.0,0.0,0.0
2026/06/04 15:16:52.528882555,1780597012,527242518,imu_link,-0.04923394694924355,0.07173671573400499,0.6399914026260376,0.7634400725364686,0.0,0.0,0.0,0.0,0.0,0.0,0.0,0.0,0.0,-0.010269879363477232,0.024425238370895386,0.006813555955886841,0.0,0.0,0.0,0.0,0.0,0.0,0.0,0.0,0.0,-1.6778662204742432,-0.03176271170377731,9.679070472717287,0.0,0.0,0.0,0.0,0.0,0.0,0.0,0.0,0.0
2026/06/04 15:16:52.529316388,1780597012,527267493,imu_link,-0.049253780394792564,0.07174824178218842,0.6399869918823242,0.7634414434432983,0.0,0.0,0.0,0.0,0.0,0.0,0.0,0.0,0.0,-0.005915761459618808,0.017289072275161743,-0.0040605668909847745,0.0,0.0,0.0,0.0,0.0,0.0,0.0,0.0,0.0,-1.6491290330886843,-0.07538066804409027,9.659598350524904,0.0,0.0,0.0,0.0,0.0,0.0,0.0,0.0,0.0
2026/06/04 15:16:52.538184345,1780597012,537945329,imu_link,-0.04926025494933129,0.0717650055885315,0.6400029063224794,0.7634262442588807,0.0,0.0,0.0,0.0,0.0,0.0,0.0,0.0,0.0,-0.003440678352490068,0.016731770709156994,0.014919787645339966,0.0,0.0,0.0,0.0,0.0,0.0,0.0,0.0,0.0,-1.613046646118164,-0.09229087084531785,9.65419101715088,0.0,0.0,0.0,0.0,0.0,0.0,0.0,0.0,0.0
2026/06/04 15:16:52.538499464,1780597012,537975332,imu_link,-0.04926842451095581,0.07178241759538652,0.6400028467178345,0.7634241580963135,0.0,0.0,0.0,0.0,0.0,0.0,0.0,0.0,0.0,0.0038348142988979816,0.014939161948859693,0.0012479722499847412,0.0,0.0,0.0,0.0,0.0,0.0,0.0,0.0,0.0,-1.7545952796936035,-0.12771862745285034,9.608252525329592,0.0,0.0,0.0,0.0,0.0,0.0,0.0,0.0,0.0
2026/06/04 15:16:52.538818906,1780597012,537992197,imu_link,-0.049274198710918427,0.07180477678775787,0.6400033831596376,0.7634212970733643,0.0,0.0,0.0,0.0,0.0,0.0,0.0,0.0,0.0,0.007765741087496281,0.016760082915425304,0.0023536391090601687,0.0,0.0,0.0,0.0,0.0,0.0,0.0,0.0,0.0,-1.7964329719543457,-0.06274586915969849,9.58397102355957,0.0,0.0,0.0,0.0,0.0,0.0,0.0,0.0,0.0
2026/06/04 15:16:52.539127618,1780597012,538006615,imu_link,-0.04927509278059006,0.07181965559720994,0.6400143504142762,0.7634106278419496,0.0,0.0,0.0,0.0,0.0,0.0,0.0,0.0,0.0,0.006011873483657837,0.00971928332000971,0.012665241956710815,0.0,0.0,0.0,0.0,0.0,0.0,0.0,0.0,0.0,-1.785603165626526,0.09487634897232056,9.56716823577881,0.0,0.0,0.0,0.0,0.0,0.0,0.0,0.0,0.0
2026/06/04 15:16:52.548788369,1780597012,548631172,imu_link,-0.04926048964262009,0.07184097915887834,0.6400216817855835,0.7634031772613525,0.0,0.0,0.0,0.0,0.0,0.0,0.0,0.0,0.0,0.013010948896408081,0.008545070886611938,0.007193536031991244,0.0,0.0,0.0,0.0,0.0,0.0,0.0,0.0,0.0,-1.7797331809997559,0.19527412950992587,9.563520431518555,0.0,0.0,0.0,0.0,0.0,0.0,0.0,0.0,0.0
2026/06/04 15:16:52.549017371,1780597012,548646761,imu_link,-0.04925899580121041,0.0718616768717766,0.6400147676467896,0.7634071707725526,0.0,0.0,0.0,0.0,0.0,0.0,0.0,0.0,0.0,0.012054295279085638,0.011915711686015129,-0.00539571000263095,0.0,0.0,0.0,0.0,0.0,0.0,0.0,0.0,0.0,-1.7830897569656374,0.3703623414039612,9.598024368286133,0.0,0.0,0.0,0.0,0.0,0.0,0.0,0.0,0.0
2026/06/04 15:16:52.549256617,1780597012,548653778,imu_link,-0.04926175996661187,0.07187819480895996,0.6400224566459657,0.7633989453315736,0.0,0.0,0.0,0.0,0.0,0.0,0.0,0.0,0.0,0.005992501974105835,0.01166388299316168,0.009395928122103216,0.0,0.0,0.0,0.0,0.0,0.0,0.0,0.0,0.0,-1.6507692337036133,0.542633354663849,9.65682601928711,0.0,0.0,0.0,0.0,0.0,0.0,0.0,0.0,0.0
2026/06/04 15:16:52.549472821,1780597012,548660573,imu_link,-0.049273163080215454,0.07189084589481354,0.6400414109230043,0.7633811235427856,0.0,0.0,0.0,0.0,0.0,0.0,0.0,0.0,0.0,-0.002296268939971924,0.013836474157869818,0.02056136727333069,0.0,0.0,0.0,0.0,0.0,0.0,0.0,0.0,0.0,-1.6697604656219482,0.6191075444221498,9.75567626953125,0.0,0.0,0.0,0.0,0.0,0.0,0.0,0.0,0.0
2026/06/04 15:16:52.560383347,1780597012,560258379,imu_link,-0.049278918653726585,0.07190532982349396,0.6399705410003662,0.7634388804435731,0.0,0.0,0.0,0.0,0.0,0.0,0.0,0.0,0.0,-0.007978081703186035,0.015044957399368286,-0.004255772102624179,0.0,0.0,0.0,0.0,0.0,0.0,0.0,0.0,0.0,-1.8256369829177859,0.5803815126419067,9.82328987121582,0.0,0.0,0.0,0.0,0.0,0.0,0.0,0.0,0.0
2026/06/04 15:16:52.560595769,1780597012,560268201,imu_link,-0.049301881343126304,0.07190876454114915,0.6399710178375244,0.7634366750717163,0.0,0.0,0.0,0.0,0.0,0.0,0.0,0.0,0.0,-0.01239478588104248,0.013954193331301214,0.00020936131477355957,0.0,0.0,0.0,0.0,0.0,0.0,0.0,0.0,0.0,-1.8252696990966797,0.5084577798843384,9.827995300292969,0.0,0.0,0.0,0.0,0.0,0.0,0.0,0.0,0.0
2026/06/04 15:16:52.560817629,1780597012,560275114,imu_link,-0.049319464713335044,0.0719115659594536,0.6399861574172974,0.7634226083755493,0.0,0.0,0.0,0.0,0.0,0.0,0.0,0.0,0.0,-0.01074671745300293,0.010915846563875677,0.015548619441688062,0.0,0.0,0.0,0.0,0.0,0.0,0.0,0.0,0.0,-1.907485365867615,0.34742328524589544,9.869532585144045,0.0,0.0,0.0,0.0,0.0,0.0,0.0,0.0,0.0
2026/06/04 15:16:52.561025234,1780597012,560281273,imu_link,-0.049332395195961,0.07190565764904022,0.6399997472763062,0.7634108662605287,0.0,0.0,0.0,0.0,0.0,0.0,0.0,0.0,0.0,-0.012180208228528501,0.003138929605484009,0.01331791188567877,0.0,0.0,0.0,0.0,0.0,0.0,0.0,0.0,0.0,-2.0897865295410156,0.17460186779499057,9.853281021118164,0.0,0.0,0.0,0.0,0.0,0.0,0.0,0.0,0.0
2026/06/04 15:16:52.561242318,1780597012,560287368,imu_link,-0.04930835962295532,0.07191159576177598,0.6397478580474854,0.7636229991912842,0.0,0.0,0.0,0.0,0.0,0.0,0.0,0.0,0.0,-0.009773672558367254,-0.0045627360232174405,-0.004276633262634277,0.0,0.0,0.0,0.0,0.0,0.0,0.0,0.0,0.0,-2.2216632366180424,0.03585630282759667,9.836843490600586,0.0,0.0,0.0,0.0,0.0,0.0,0.0,0.0,0.0
2026/06/04 15:16:52.571219704,1780597012,571009980,imu_link,-0.0493057630956173,0.07189034670591356,0.6397493481636048,0.7636239528656006,0.0,0.0,0.0,0.0,0.0,0.0,0.0,0.0,0.0,-0.009347499348223211,-0.0144273042678833,-0.00026226046611554926,0.0,0.0,0.0,0.0,0.0,0.0,0.0,0.0,0.0,-2.0321884155273438,0.0006275696796365083,9.81676769256592,0.0,0.0,0.0,0.0,0.0,0.0,0.0,0.0,0.0
2026/06/04 15:16:52.571418339,1780597012,571026143,imu_link,-0.049291778355836875,0.07186345010995866,0.6397616863250732,0.7636170983314515,0.0,0.0,0.0,0.0,0.0,0.0,0.0,0.0,0.0,-0.0062212347984313965,-0.023683907464146618,0.010845811106264593,0.0,0.0,0.0,0.0,0.0,0.0,0.0,0.0,0.0,-1.894944190979004,-0.05062194541096688,9.800687789916992,0.0,0.0,0.0,0.0,0.0,0.0,0.0,0.0,0.0
2026/06/04 15:16:52.571641033,1780597012,571033446,imu_link,-0.04927732050418854,0.07184064388275146,0.6397655010223389,0.763616979122162,0.0,0.0,0.0,0.0,0.0,0.0,0.0,0.0,0.0,-0.003078580368310213,-0.02148002572357655,0.002316385507583618,0.0,0.0,0.0,0.0,0.0,0.0,0.0,0.0,0.0,-1.906849026679993,-0.02290446870028973,9.746320724487305,0.0,0.0,0.0,0.0,0.0,0.0,0.0,0.0,0.0
2026/06/04 15:16:52.571852692,1780597012,571039845,imu_link,-0.04923904687166214,0.07182603329420091,0.6396849155426025,0.7636882662773133,0.0,0.0,0.0,0.0,0.0,0.0,0.0,0.0,0.0,0.0014521185075864198,-0.025992101058363918,0.005239994265139103,0.0,0.0,0.0,0.0,0.0,0.0,0.0,0.0,0.0,-1.861851692199707,0.05081867054104806,9.629656791687013,0.0,0.0,0.0,0.0,0.0,0.0,0.0,0.0,0.0
2026/06/04 15:16:52.581833035,1780597012,581659489,imu_link,-0.049221906810998924,0.07179342955350877,0.6396918892860414,0.7636865377426147,0.0,0.0,0.0,0.0,0.0,0.0,0.0,0.0,0.0,-0.006693602073937655,-0.028873980045318604,0.004819781053811313,0.0,0.0,0.0,0.0,0.0,0.0,0.0,0.0,0.0,-1.7681591510772705,0.0605623982846737,9.578142166137695,0.0,0.0,0.0,0.0,0.0,0.0,0.0,0.0,0.0
2026/06/04 15:16:52.582069283,1780597012,581670806,imu_link,-0.049200743436813354,0.07176663726568223,0.6396946907043457,0.7636880278587342,0.0,0.0,0.0,0.0,0.0,0.0,0.0,0.0,0.0,-0.0008970499620772899,-0.027398765087127686,0.0011198222637176514,0.0,0.0,0.0,0.0,0.0,0.0,0.0,0.0,0.0,-1.665823221206665,0.12748961150646212,9.503622055053711,0.0,0.0,0.0,0.0,0.0,0.0,0.0,0.0,0.0
2026/06/04 15:16:52.582289141,1780597012,581677622,imu_link,-0.04917264357209206,0.07174222916364671,0.6396960616111756,0.7636909484863281,0.0,0.0,0.0,0.0,0.0,0.0,0.0,0.0,0.0,0.004697591997683048,-0.029525166377425197,-1.6391277313232422e-05,0.0,0.0,0.0,0.0,0.0,0.0,0.0,0.0,0.0,-1.528231978416443,0.23807668685913086,9.465018272399904,0.0,0.0,0.0,0.0,0.0,0.0,0.0,0.0,0.0
2026/06/04 15:16:52.582510817,1780597012,581684011,imu_link,-0.0491330809891224,0.07172647863626481,0.6396727561950684,0.7637146115303041,0.0,0.0,0.0,0.0,0.0,0.0,0.0,0.0,0.0,0.00583454966545105,-0.02785027027130127,0.010790676809847357,0.0,0.0,0.0,0.0,0.0,0.0,0.0,0.0,0.0,-1.4146772623062136,0.3960943818092346,9.48025894165039,0.0,0.0,0.0,0.0,0.0,0.0,0.0,0.0,0.0
2026/06/04 15:16:52.593694219,1780597012,593408291,imu_link,-0.049120642244815826,0.0717093124985695,0.6396773457527162,0.7637131214141846,0.0,0.0,0.0,0.0,0.0,0.0,0.0,0.0,0.0,-0.0015214085578918457,-0.01695305295288563,0.0036053364165127277,0.0,0.0,0.0,0.0,0.0,0.0,0.0,0.0,0.0,-1.3669232130050661,0.47338008880615234,9.51124382019043,0.0,0.0,0.0,0.0,0.0,0.0,0.0,0.0,0.0
2026/06/04 15:16:52.594140989,1780597012,593440225,imu_link,-0.04911600425839425,0.07169046998023987,0.6396741271018983,0.7637178897857666,0.0,0.0,0.0,0.0,0.0,0.0,0.0,0.0,0.0,-0.006452203262597323,-0.014039874076843262,-0.004884600639343262,0.0,0.0,0.0,0.0,0.0,0.0,0.0,0.0,0.0,-1.2046148777008057,0.5309324860572816,9.55171871185303,0.0,0.0,0.0,0.0,0.0,0.0,0.0,0.0,0.0
2026/06/04 15:16:52.594565422,1780597012,593455051,imu_link,-0.049121823161840446,0.0716819316148758,0.6396794319152832,0.7637138366699219,0.0,0.0,0.0,0.0,0.0,0.0,0.0,0.0,0.0,-0.008398294448852539,-0.0022172930184751753,0.004617124795913696,0.0,0.0,0.0,0.0,0.0,0.0,0.0,0.0,0.0,-1.096618413925171,0.5333441495895386,9.603947639465334,0.0,0.0,0.0,0.0,0.0,0.0,0.0,0.0,0.0
2026/06/04 15:16:52.594977487,1780597012,593468398,imu_link,-0.049126580357551575,0.07168091833591461,0.6396955251693726,0.7637003660202026,0.0,0.0,0.0,0.0,0.0,0.0,0.0,0.0,0.0,-0.01126974727958441,0.004228204023092986,0.013781338930130005,0.0,0.0,0.0,0.0,0.0,0.0,0.0,0.0,0.0,-1.219574213027954,0.4244419634342194,9.626625061035156,0.0,0.0,0.0,0.0,0.0,0.0,0.0,0.0,0.0
2026/06/04 15:16:52.595400431,1780597012,593481714,imu_link,-0.049145903438329704,0.0716775879263878,0.6397024393081665,0.7636936306953431,0.0,0.0,0.0,0.0,0.0,0.0,0.0,0.0,0.0,-0.014188887551426888,0.007962436415255071,0.006441026926040649,0.0,0.0,0.0,0.0,0.0,0.0,0.0,0.0,0.0,-1.474351406097412,0.33239662647247314,9.59196662902832,0.0,0.0,0.0,0.0,0.0,0.0,0.0,0.0,0.0
2026/06/04 15:16:52.603575737,1780597012,603218488,imu_link,-0.04917076975107193,0.07167386263608934,0.6397026777267456,0.7636922001838685,0.0,0.0,0.0,0.0,0.0,0.0,0.0,0.0,0.0,-0.0171810407191515,0.010519474744796753,-0.0007018446922302246,0.0,0.0,0.0,0.0,0.0,0.0,0.0,0.0,0.0,-1.5355011224746706,0.2197651714086533,9.585086822509766,0.0,0.0,0.0,0.0,0.0,0.0,0.0,0.0,0.0
2026/06/04 15:16:52.603951067,1780597012,603272874,imu_link,-0.04918752610683441,0.07166921347379686,0.63970947265625,0.7636858224868774,0.0,0.0,0.0,0.0,0.0,0.0,0.0,0.0,0.0,-0.013269484043121338,0.005830079782754184,0.006283074617385864,0.0,0.0,0.0,0.0,0.0,0.0,0.0,0.0,0.0,-1.4921619892120361,0.0877293199300766,9.593491554260256,0.0,0.0,0.0,0.0,0.0,0.0,0.0,0.0,0.0
2026/06/04 15:16:52.604283878,1780597012,603360553,imu_link,-0.049200788140296936,0.0716739520430565,0.6397194862365723,0.7636759877204896,0.0,0.0,0.0,0.0,0.0,0.0,0.0,0.0,0.0,-0.013224780559539795,0.012563914060592651,0.007773191202431918,0.0,0.0,0.0,0.0,0.0,0.0,0.0,0.0,0.0,-1.4722270965576172,-0.0035798388998955493,9.62643814086914,0.0,0.0,0.0,0.0,0.0,0.0,0.0,0.0,0.0
2026/06/04 15:16:52.604605398,1780597012,603388954,imu_link,-0.0492100864648819,0.07167723774909973,0.639726996421814,0.7636687755584717,0.0,0.0,0.0,0.0,0.0,0.0,0.0,0.0,0.0,-0.0047281389124691495,0.006880611181259155,0.007892400957643987,0.0,0.0,0.0,0.0,0.0,0.0,0.0,0.0,0.0,-1.5143377780914307,0.012671668082475662,9.610770225524904,0.0,0.0,0.0,0.0,0.0,0.0,0.0,0.0,0.0
2026/06/04 15:16:52.614538224,1780597012,614065256,imu_link,-0.04922176152467728,0.07168031483888627,0.6397318243980409,0.7636637091636659,0.0,0.0,0.0,0.0,0.0,0.0,0.0,0.0,0.0,-0.0060498714447021484,0.007953495718538763,0.004983693826943637,0.0,0.0,0.0,0.0,0.0,0.0,0.0,0.0,0.0,-1.5753034353256228,0.016873331740498546,9.622542381286623,0.0,0.0,0.0,0.0,0.0,0.0,0.0,0.0,0.0
2026/06/04 15:16:52.615015539,1780597012,614109891,imu_link,-0.049233004450798035,0.07169204205274583,0.6397285461425781,0.7636646032333374,0.0,0.0,0.0,0.0,0.0,0.0,0.0,0.0,0.0,-0.0006571412086486816,0.012988598085939886,-0.0026538968086242676,0.0,0.0,0.0,0.0,0.0,0.0,0.0,0.0,0.0,-1.5910636186599734,-0.01425988879054785,9.584708213806154,0.0,0.0,0.0,0.0,0.0,0.0,0.0,0.0,0.0
2026/06/04 15:16:52.615434407,1780597012,614131769,imu_link,-0.04923412948846817,0.07171038538217546,0.6397304534912109,0.7636613249778749,0.0,0.0,0.0,0.0,0.0,0.0,0.0,0.0,0.0,0.001765042659826577,0.014825911261141302,0.002998858690261841,0.0,0.0,0.0,0.0,0.0,0.0,0.0,0.0,0.0,-1.6275842189788818,-0.005882343742996455,9.535848617553711,0.0,0.0,0.0,0.0,0.0,0.0,0.0,0.0,0.0
2026/06/04 15:16:52.615868310,1780597012,614152309,imu_link,-0.04923985153436661,0.07172930985689165,0.6397449374198915,0.7636470794677734,0.0,0.0,0.0,0.0,0.0,0.0,0.0,0.0,0.0,0.004779547452926636,0.014732033945620062,0.016585737466812134,0.0,0.0,0.0,0.0,0.0,0.0,0.0,0.0,0.0,-1.6150351762771609,0.1156466528773308,9.504638671875,0.0,0.0,0.0,0.0,0.0,0.0,0.0,0.0,0.0
2026/06/04 15:16:52.626269470,1780597012,625869409,imu_link,-0.04924857988953591,0.07174934446811676,0.6397511363029481,0.7636394500732422,0.0,0.0,0.0,0.0,0.0,0.0,0.0,0.0,0.0,0.004249066580086947,0.01689717173576355,0.007971376180648804,0.0,0.0,0.0,0.0,0.0,0.0,0.0,0.0,0.0,-1.739898681640625,0.2656863331794739,9.51375484466553,0.0,0.0,0.0,0.0,0.0,0.0,0.0,0.0,0.0
2026/06/04 15:16:52.626610207,1780597012,625916324,imu_link,-0.04925600439310074,0.07176540791988373,0.6397395133972168,0.7636471390724183,0.0,0.0,0.0,0.0,0.0,0.0,0.0,0.0,0.0,0.004643946886062622,0.01362487766891718,-0.010833144187927246,0.0,0.0,0.0,0.0,0.0,0.0,0.0,0.0,0.0,-1.6595158576965332,0.4372063577175141,9.545908927917482,0.0,0.0,0.0,0.0,0.0,0.0,0.0,0.0,0.0
2026/06/04 15:16:52.627014319,1780597012,625943516,imu_link,-0.049268268048763275,0.07177169620990753,0.6398752927780151,0.7635319828987123,0.0,0.0,0.0,0.0,0.0,0.0,0.0,0.0,0.0,-0.0014603139134123924,0.012467059306800367,0.012449175119400024,0.0,0.0,0.0,0.0,0.0,0.0,0.0,0.0,0.0,-1.5136206150054932,0.5227448344230653,9.587647438049318,0.0,0.0,0.0,0.0,0.0,0.0,0.0,0.0,0.0
2026/06/04 15:16:52.627285372,1780597012,625967035,imu_link,-0.04928615689277649,0.0717894807457924,0.6398932337760926,0.7635140419006348,0.0,0.0,0.0,0.0,0.0,0.0,0.0,0.0,0.0,-0.0035762789193540816,0.020334869623184204,0.019820777699351314,0.0,0.0,0.0,0.0,0.0,0.0,0.0,0.0,0.0,-1.4924198389053347,0.5368340611457826,9.729218482971193,0.0,0.0,0.0,0.0,0.0,0.0,0.0,0.0,0.0
2026/06/04 15:16:52.627641316,1780597012,625990157,imu_link,-0.04931768402457238,0.07181040197610856,0.6398960947990419,0.763507604598999,0.0,0.0,0.0,0.0,0.0,0.0,0.0,0.0,0.0,-0.008980929851531982,0.029171260073781017,0.004088134039193393,0.0,0.0,0.0,0.0,0.0,0.0,0.0,0.0,0.0,-1.6254844665527344,0.46659642457962036,9.794841766357422,0.0,0.0,0.0,0.0,0.0,0.0,0.0,0.0,0.0
2026/06/04 15:16:52.637256254,1780597012,636727400,imu_link,-0.04934988170862198,0.07182731479406358,0.6398926377296449,0.7635067701339722,0.0,0.0,0.0,0.0,0.0,0.0,0.0,0.0,0.0,-0.010854005813598633,0.026994200423359874,-0.0028565526008605957,0.0,0.0,0.0,0.0,0.0,0.0,0.0,0.0,0.0,-1.6886930465698242,0.3812864422798157,9.824148178100586,0.0,0.0,0.0,0.0,0.0,0.0,0.0,0.0,0.0
2026/06/04 15:16:52.637790121,1780597012,636800502,imu_link,-0.049365974962711334,0.07184381783008575,0.6399127244949341,0.7634873986244203,0.0,0.0,0.0,0.0,0.0,0.0,0.0,0.0,0.0,-0.009764731861650945,0.02168640680611134,0.01900419220328331,0.0,0.0,0.0,0.0,0.0,0.0,0.0,0.0,0.0,-1.8006768226623535,0.2302537709474564,9.810523033142092,0.0,0.0,0.0,0.0,0.0,0.0,0.0,0.0,0.0
2026/06/04 15:16:52.638341675,1780597012,636841176,imu_link,-0.04939069971442223,0.07185655087232591,0.6399192810058594,0.7634791135787964,0.0,0.0,0.0,0.0,0.0,0.0,0.0,0.0,0.0,-0.009299815632402899,0.020647794008255005,0.007327646482735873,0.0,0.0,0.0,0.0,0.0,0.0,0.0,0.0,0.0,-2.0352408885955815,0.06411077082157135,9.806434631347656,0.0,0.0,0.0,0.0,0.0,0.0,0.0,0.0,0.0
2026/06/04 15:16:52.638972441,1780597012,636878178,imu_link,-0.049403443932533264,0.07186218351125719,0.6399227976799012,0.7634748816490174,0.0,0.0,0.0,0.0,0.0,0.0,0.0,0.0,0.0,-0.005288422573357821,0.010063499212265015,0.0038109724409878254,0.0,0.0,0.0,0.0,0.0,0.0,0.0,0.0,0.0,-2.1008093357086186,-0.002970322268083692,9.7808313369751,0.0,0.0,0.0,0.0,0.0,0.0,0.0,0.0,0.0
2026/06/04 15:16:52.646983157,1780597012,646377464,imu_link,-0.049403779208660126,0.07185939699411394,0.639934778213501,0.7634650468826294,0.0,0.0,0.0,0.0,0.0,0.0,0.0,0.0,0.0,-0.0027254228480160236,-0.00144392263609916,0.012252481654286385,0.0,0.0,0.0,0.0,0.0,0.0,0.0,0.0,0.0,-2.0394217967987065,-0.030092790722846985,9.808881759643555,0.0,0.0,0.0,0.0,0.0,0.0,0.0,0.0,0.0
2026/06/04 15:16:52.647493887,1780597012,646444417,imu_link,-0.049392133951187134,0.0718611627817154,0.6399474143981934,0.7634551525115967,0.0,0.0,0.0,0.0,0.0,0.0,0.0,0.0,0.0,0.0005029142485000194,-0.002074241871014238,0.010810047388076782,0.0,0.0,0.0,0.0,0.0,0.0,0.0,0.0,0.0,-1.9414879083633425,-0.0370808020234108,9.82009029388428,0.0,0.0,0.0,0.0,0.0,0.0,0.0,0.0,0.0
2026/06/04 15:16:52.648116819,1780597012,646481516,imu_link,-0.049382284283638,0.07185475528240204,0.6399430632591249,0.7634599804878236,0.0,0.0,0.0,0.0,0.0,0.0,0.0,0.0,0.0,0.0031612818129360676,-0.009067357517778875,-0.004792213439941406,0.0,0.0,0.0,0.0,0.0,0.0,0.0,0.0,0.0,-1.9132063388824463,-0.04801102355122567,9.75377082824707,0.0,0.0,0.0,0.0,0.0,0.0,0.0,0.0,0.0
2026/06/04 15:16:52.648634346,1780597012,646519335,imu_link,-0.049368493258953094,0.0718453973531723,0.6399489045143129,0.7634567618370057,0.0,0.0,0.0,0.0,0.0,0.0,0.0,0.0,0.0,0.0031538307666778564,-0.012828410603106024,0.005637854803353549,0.0,0.0,0.0,0.0,0.0,0.0,0.0,0.0,0.0,-1.7316814661026003,0.022225841879844666,9.66304111480713,0.0,0.0,0.0,0.0,0.0,0.0,0.0,0.0,0.0
2026/06/04 15:16:52.658766754,1780597012,658238360,imu_link,-0.04935329407453537,0.07183995842933655,0.6399701833724976,0.7634404301643373,0.0,0.0,0.0,0.0,0.0,0.0,0.0,0.0,0.0,0.004612654447555542,-0.01101046893745661,0.022070854902267456,0.0,0.0,0.0,0.0,0.0,0.0,0.0,0.0,0.0,-1.7792118787765505,0.13856355845928195,9.633564949035646,0.0,0.0,0.0,0.0,0.0,0.0,0.0,0.0,0.0
2026/06/04 15:16:52.659479616,1780597012,658303145,imu_link,-0.04932845756411553,0.07183536887168884,0.6399204730987549,0.763484299182892,0.0,0.0,0.0,0.0,0.0,0.0,0.0,0.0,0.0,0.003252178430557251,-0.012922286987304688,-0.006383657921105624,0.0,0.0,0.0,0.0,0.0,0.0,0.0,0.0,0.0,-1.7916719913482666,0.1825823932886124,9.559306144714357,0.0,0.0,0.0,0.0,0.0,0.0,0.0,0.0,0.0
2026/06/04 15:16:52.660030992,1780597012,658343896,imu_link,-0.04931214079260827,0.07182635366916656,0.6399121880531312,0.7634931802749634,0.0,0.0,0.0,0.0,0.0,0.0,0.0,0.0,0.0,0.006165355443954468,-0.014050305821001531,-0.009056925773620605,0.0,0.0,0.0,0.0,0.0,0.0,0.0,0.0,0.0,-1.6767829656600954,0.35399287939071655,9.479433059692383,0.0,0.0,0.0,0.0,0.0,0.0,0.0,0.0,0.0
2026/06/04 15:16:52.660536602,1780597012,658381144,imu_link,-0.04929105192422867,0.07181970775127411,0.6399270892143251,0.7634826302528382,0.0,0.0,0.0,0.0,0.0,0.0,0.0,0.0,0.0,0.008188932202756407,-0.014847517013549805,0.015454739332199097,0.0,0.0,0.0,0.0,0.0,0.0,0.0,0.0,0.0,-1.5329943895339968,0.48841536045074463,9.482477188110352,0.0,0.0,0.0,0.0,0.0,0.0,0.0,0.0,0.0
2026/06/04 15:16:52.661224492,1780597012,658417671,imu_link,-0.0492771714925766,0.07181812822818756,0.6399402022361756,0.7634726762771606,0.0,0.0,0.0,0.0,0.0,0.0,0.0,0.0,0.0,0.006509573198854923,-0.008018315769732,0.01387372799217701,0.0,0.0,0.0,0.0,0.0,0.0,0.0,0.0,0.0,-1.5310797691345215,0.5591096282005311,9.568474769592287,0.0,0.0,0.0,0.0,0.0,0.0,0.0,0.0,0.0
2026/06/04 15:16:52.669448042,1780597012,668969747,imu_link,-0.04925470426678658,0.0718192458152771,0.6397866010665894,0.763602614402771,0.0,0.0,0.0,0.0,0.0,0.0,0.0,0.0,0.0,-0.003935396671295166,-0.0075981030240654945,-0.007525087799876929,0.0,0.0,0.0,0.0,0.0,0.0,0.0,0.0,0.0,-1.5146682262420654,0.6168560981750488,9.654150962829592,0.0,0.0,0.0,0.0,0.0,0.0,0.0,0.0,0.0
2026/06/04 15:16:52.670037966,1780597012,669038754,imu_link,-0.04926630109548569,0.0718110278248787,0.6397883892059326,0.7636011838912964,0.0,0.0,0.0,0.0,0.0,0.0,0.0,0.0,0.0,-0.011467933654785156,0.0009246172267012299,0.0008560717105865479,0.0,0.0,0.0,0.0,0.0,0.0,0.0,0.0,0.0,-1.357886552810669,0.5684001445770264,9.722007751464844,0.0,0.0,0.0,0.0,0.0,0.0,0.0,0.0,0.0
2026/06/04 15:16:52.670582323,1780597012,669100046,imu_link,-0.04928109794855118,0.07180589437484741,0.6398007869720459,0.7635902762413026,0.0,0.0,0.0,0.0,0.0,0.0,0.0,0.0,0.0,-0.012823941186070442,0.004569441545754672,0.012139233760535719,0.0,0.0,0.0,0.0,0.0,0.0,0.0,0.0,0.0,-1.419832706451416,0.45386964082717896,9.770153045654297,0.0,0.0,0.0,0.0,0.0,0.0,0.0,0.0,0.0
2026/06/04 15:16:52.671183564,1780597012,669226682,imu_link,-0.04929757118225098,0.07180362939834595,0.6398097276687622,0.7635819911956787,0.0,0.0,0.0,0.0,0.0,0.0,0.0,0.0,0.0,-0.012078882195055487,0.00717118289321661,0.00866577122360468,0.0,0.0,0.0,0.0,0.0,0.0,0.0,0.0,0.0,-1.6393437385559082,0.28276833891868597,9.73191547393799,0.0,0.0,0.0,0.0,0.0,0.0,0.0,0.0,0.0
2026/06/04 15:16:52.680065745,1780597012,679669958,imu_link,-0.04929446429014206,0.07180128991603851,0.639716923236847,0.7636603713035585,0.0,0.0,0.0,0.0,0.0,0.0,0.0,0.0,0.0,-0.015032292343676092,0.00031813982059247797,0.004153698682785034,0.0,0.0,0.0,0.0,0.0,0.0,0.0,0.0,0.0,-1.8181387186050417,0.15948989987373352,9.70712184906006,0.0,0.0,0.0,0.0,0.0,0.0,0.0,0.0,0.0
2026/06/04 15:16:52.680390142,1780597012,679699950,imu_link,-0.04930152744054794,0.07178080826997758,0.6397229433059692,0.763656735420227,0.0,0.0,0.0,0.0,0.0,0.0,0.0,0.0,0.0,-0.015303492546081543,-0.008933247067034246,0.004313141107559204,0.0,0.0,0.0,0.0,0.0,0.0,0.0,0.0,0.0,-1.7662267684936523,0.04461447149515152,9.679263114929201,0.0,0.0,0.0,0.0,0.0,0.0,0.0,0.0,0.0
2026/06/04 15:16:52.680742037,1780597012,679715967,imu_link,-0.04930663853883743,0.07176374644041063,0.6397230625152588,0.7636579275131226,0.0,0.0,0.0,0.0,0.0,0.0,0.0,0.0,0.0,-0.011831522919237615,-0.00788569450378418,-0.0014767050743103027,0.0,0.0,0.0,0.0,0.0,0.0,0.0,0.0,0.0,-1.699280023574829,-0.05284024029970169,9.686215400695803,0.0,0.0,0.0,0.0,0.0,0.0,0.0,0.0,0.0
2026/06/04 15:16:52.680988412,1780597012,679729798,imu_link,-0.049306415021419525,0.07174643874168396,0.639725923538208,0.7636571526527406,0.0,0.0,0.0,0.0,0.0,0.0,0.0,0.0,0.0,-0.008928777649998665,-0.010755660943686964,0.001495331758633256,0.0,0.0,0.0,0.0,0.0,0.0,0.0,0.0,0.0,-1.6339331865310671,-0.050444237887859344,9.656424522399904,0.0,0.0,0.0,0.0,0.0,0.0,0.0,0.0,0.0
2026/06/04 15:16:52.681235085,1780597012,679743050,imu_link,-0.049278587102890015,0.07174091786146165,0.6396458745002748,0.7637264132499696,0.0,0.0,0.0,0.0,0.0,0.0,0.0,0.0,0.0,-0.0016868115635588767,-0.014398992992937567,0.013519078493118286,0.0,0.0,0.0,0.0,0.0,0.0,0.0,0.0,0.0,-1.5791546106338503,-0.026332318782806396,9.589966773986818,0.0,0.0,0.0,0.0,0.0,0.0,0.0,0.0,0.0
2026/06/04 15:16:52.690682366,1780597012,690367961,imu_link,-0.04927118122577667,0.07172791659832001,0.6396489739418031,0.7637255787849427,0.0,0.0,0.0,0.0,0.0,0.0,0.0,0.0,0.0,-0.002355874283239246,-0.011810662224888802,0.0022642316762357955,0.0,0.0,0.0,0.0,0.0,0.0,0.0,0.0,0.0,-1.6241348981857302,0.006700086873024703,9.568262100219727,0.0,0.0,0.0,0.0,0.0,0.0,0.0,0.0,0.0
2026/06/04 15:16:52.690855022,1780597012,690383459,imu_link,-0.049266736954450614,0.0717180445790291,0.6396393179893495,0.7637349367141724,0.0,0.0,0.0,0.0,0.0,0.0,0.0,0.0,0.0,-0.0014334918232634666,-0.008466839790344238,-0.010807812213897705,0.0,0.0,0.0,0.0,0.0,0.0,0.0,0.0,0.0,-1.568190336227417,0.08406157046556474,9.478553771972656,0.0,0.0,0.0,0.0,0.0,0.0,0.0,0.0,0.0
2026/06/04 15:16:52.691096761,1780597012,690391682,imu_link,-0.04926134273409844,0.07171114534139635,0.6396430134773256,0.7637327909469604,0.0,0.0,0.0,0.0,0.0,0.0,0.0,0.0,0.0,-0.0005498528480529785,-0.007006526459008456,0.0034071505069732666,0.0,0.0,0.0,0.0,0.0,0.0,0.0,0.0,0.0,-1.5179147720336914,0.20899763703346252,9.472063064575195,0.0,0.0,0.0,0.0,0.0,0.0,0.0,0.0,0.0
2026/06/04 15:16:52.691316180,1780597012,690399030,imu_link,-0.04924440011382104,0.07171659171581268,0.6396558284759521,0.7637225389480591,0.0,0.0,0.0,0.0,0.0,0.0,0.0,0.0,0.0,0.0058852145448327065,-0.0025853519327938557,0.01152977626770735,0.0,0.0,0.0,0.0,0.0,0.0,0.0,0.0,0.0,-1.5027046203613281,0.36172053217887884,9.466056823730469,0.0,0.0,0.0,0.0,0.0,0.0,0.0,0.0,0.0
2026/06/04 15:16:52.701331409,1780597012,701112309,imu_link,-0.049246907234191895,0.07172011584043504,0.6396564841270448,0.763721525669098,0.0,0.0,0.0,0.0,0.0,0.0,0.0,0.0,0.0,0.00017806889081839475,0.0034667551517486572,0.000918656645808369,0.0,0.0,0.0,0.0,0.0,0.0,0.0,0.0,0.0,-1.5055276155471804,0.5114870071411133,9.490667343139648,0.0,0.0,0.0,0.0,0.0,0.0,0.0,0.0,0.0
2026/06/04 15:16:52.701571239,1780597012,701131524,imu_link,-0.04925842210650445,0.07172081619501115,0.6396559476852417,0.7637211084365845,0.0,0.0,0.0,0.0,0.0,0.0,0.0,0.0,0.0,-0.006674230098724365,0.0063590710051357755,-0.0007659197435714306,0.0,0.0,0.0,0.0,0.0,0.0,0.0,0.0,0.0,-1.388512372970581,0.618629276752472,9.567583084106445,0.0,0.0,0.0,0.0,0.0,0.0,0.0,0.0,0.0
2026/06/04 15:16:52.701747696,1780597012,701138465,imu_link,-0.04927779734134674,0.07172763347625732,0.6396615505218506,0.7637145519256592,0.0,0.0,0.0,0.0,0.0,0.0,0.0,0.0,0.0,-0.008949638344347479,0.014235824346542358,0.006005913484841586,0.0,0.0,0.0,0.0,0.0,0.0,0.0,0.0,0.0,-1.3068456649780273,0.5801378488540649,9.67513656616211,0.0,0.0,0.0,0.0,0.0,0.0,0.0,0.0,0.0
2026/06/04 15:16:52.701950945,1780597012,701145143,imu_link,-0.04930069297552109,0.07173549383878709,0.6396684646606445,0.7637066841125488,0.0,0.0,0.0,0.0,0.0,0.0,0.0,0.0,0.0,-0.017061829566955566,0.019588321447372437,0.004429370630532504,0.0,0.0,0.0,0.0,0.0,0.0,0.0,0.0,0.0,-1.3639392852783203,0.4764136075973511,9.724809646606445,0.0,0.0,0.0,0.0,0.0,0.0,0.0,0.0,0.0
2026/06/04 15:16:52.713320128,1780597012,713066305,imu_link,-0.04932910203933716,0.07174795866012573,0.6396794915199281,0.7636944055557251,0.0,0.0,0.0,0.0,0.0,0.0,0.0,0.0,0.0,-0.012114644050598145,0.02241805009543896,0.011873990297317505,0.0,0.0,0.0,0.0,0.0,0.0,0.0,0.0,0.0,-1.5788882970809939,0.38727790117263794,9.724040031433107,0.0,0.0,0.0,0.0,0.0,0.0,0.0,0.0,0.0
2026/06/04 15:16:52.713545777,1780597012,713080307,imu_link,-0.049359820783138275,0.07175442576408386,0.6396842598915101,0.7636877298355103,0.0,0.0,0.0,0.0,0.0,0.0,0.0,0.0,0.0,-0.016012789681553844,0.01985803246498108,0.004833191633224487,0.0,0.0,0.0,0.0,0.0,0.0,0.0,0.0,0.0,-1.806739687919617,0.21623539924621582,9.734407424926758,0.0,0.0,0.0,0.0,0.0,0.0,0.0,0.0,0.0
2026/06/04 15:16:52.713769321,1780597012,713087030,imu_link,-0.049386508762836456,0.07176171988248826,0.6396845579147339,0.7636851072311401,0.0,0.0,0.0,0.0,0.0,0.0,0.0,0.0,0.0,-0.012715160846710205,0.01825019903481007,0.0003285706043243408,0.0,0.0,0.0,0.0,0.0,0.0,0.0,0.0,0.0,-1.8831402063369753,0.08354396373033525,9.73299789428711,0.0,0.0,0.0,0.0,0.0,0.0,0.0,0.0,0.0
2026/06/04 15:16:52.713977346,1780597012,713093320,imu_link,-0.04939590394496918,0.07176762819290161,0.6396645903587342,0.7637007236480713,0.0,0.0,0.0,0.0,0.0,0.0,0.0,0.0,0.0,-0.011777878738939764,0.011753291822969915,0.001560896635055542,0.0,0.0,0.0,0.0,0.0,0.0,0.0,0.0,0.0,-1.8116228580474854,-0.048081591725349426,9.704176902770998,0.0,0.0,0.0,0.0,0.0,0.0,0.0,0.0,0.0
2026/06/04 15:16:52.714186108,1780597012,713099519,imu_link,-0.04941339045763016,0.07176949083805084,0.6396831870079042,0.7636837363243104,0.0,0.0,0.0,0.0,0.0,0.0,0.0,0.0,0.0,-0.011487303301692009,0.01031980011612177,0.019136816263198853,0.0,0.0,0.0,0.0,0.0,0.0,0.0,0.0,0.0,-1.8291860818862917,-0.055432990193367004,9.711835861206055,0.0,0.0,0.0,0.0,0.0,0.0,0.0,0.0,0.0
2026/06/04 15:16:52.723190024,1780597012,722899319,imu_link,-0.049425870180130005,0.07176671922206879,0.6396929025650024,0.7636750936508179,0.0,0.0,0.0,0.0,0.0,0.0,0.0,0.0,0.0,-0.009955466724932195,0.004803389310836792,0.009541958570480347,0.0,0.0,0.0,0.0,0.0,0.0,0.0,0.0,0.0,-1.913546085357666,-0.039106588810682304,9.736204147338867,0.0,0.0,0.0,0.0,0.0,0.0,0.0,0.0,0.0
2026/06/04 15:16:52.723398054,1780597012,722918474,imu_link,-0.049433972686529166,0.07176446914672852,0.639687180519104,0.7636795639991761,0.0,0.0,0.0,0.0,0.0,0.0,0.0,0.0,0.0,-0.005617738235741855,0.002736598253250122,-0.0062987213023006925,0.0,0.0,0.0,0.0,0.0,0.0,0.0,0.0,0.0,-1.8006983995437624,-0.025198457762598995,9.694563865661623,0.0,0.0,0.0,0.0,0.0,0.0,0.0,0.0,0.0
2026/06/04 15:16:52.723614662,1780597012,722925794,imu_link,-0.04943074285984039,0.07176002115011217,0.6398447751998901,0.7635481953620912,0.0,0.0,0.0,0.0,0.0,0.0,0.0,0.0,0.0,0.005020946729928256,-0.0023812057916074996,0.008062273263931274,0.0,0.0,0.0,0.0,0.0,0.0,0.0,0.0,0.0,-1.6972441673278809,0.028788793832063675,9.601055145263672,0.0,0.0,0.0,0.0,0.0,0.0,0.0,0.0,0.0
2026/06/04 15:16:52.723820761,1780597012,722932142,imu_link,-0.04942449554800988,0.07176472991704942,0.6398639678955078,0.7635320425033569,0.0,0.0,0.0,0.0,0.0,0.0,0.0,0.0,0.0,0.004468112252652645,-0.00015795229410286995,0.020580735057592392,0.0,0.0,0.0,0.0,0.0,0.0,0.0,0.0,0.0,-1.7224017381668093,0.036792971193790436,9.587526321411133,0.0,0.0,0.0,0.0,0.0,0.0,0.0,0.0,0.0
2026/06/04 15:16:52.730633693,1780597012,730314954,imu_link,-0.04942216351628304,0.07177257537841797,0.639861285686493,0.7635337114334106,0.0,0.0,0.0,0.0,0.0,0.0,0.0,0.0,0.0,0.005636363290250301,0.0036038456019014124,-0.0019684436265379195,0.0,0.0,0.0,0.0,0.0,0.0,0.0,0.0,0.0,-1.794997215270996,0.17955948412418368,9.54375743865967,0.0,0.0,0.0,0.0,0.0,0.0,0.0,0.0,0.0
2026/06/04 15:16:52.730777369,1780597012,730325043,imu_link,-0.04941706359386444,0.07177624851465227,0.6398563981056214,0.7635378241539003,0.0,0.0,0.0,0.0,0.0,0.0,0.0,0.0,0.0,0.005415827501565219,-0.0004112720489501953,-0.004616380203515292,0.0,0.0,0.0,0.0,0.0,0.0,0.0,0.0,0.0,-1.656527042388916,0.3776220679283142,9.544560432434084,0.0,0.0,0.0,0.0,0.0,0.0,0.0,0.0,0.0
2026/06/04 15:16:52.731303131,1780597012,730344484,imu_link,-0.04940224066376687,0.07178156822919847,0.6398682594299316,0.7635284662246704,0.0,0.0,0.0,0.0,0.0,0.0,0.0,0.0,0.0,0.004682690370827914,-0.0015303493710234763,0.010169297456741333,0.0,0.0,0.0,0.0,0.0,0.0,0.0,0.0,0.0,-1.4940971136093142,0.4637071788311005,9.558486938476562,0.0,0.0,0.0,0.0,0.0,0.0,0.0,0.0,0.0
2026/06/04 15:16:52.741530634,1780597012,741109955,imu_link,-0.04940951615571976,0.0717853456735611,0.6398741006851196,0.7635228037834169,0.0,0.0,0.0,0.0,0.0,0.0,0.0,0.0,0.0,-0.003083050483837724,0.006122141145169735,0.006175786722451449,0.0,0.0,0.0,0.0,0.0,0.0,0.0,0.0,0.0,-1.508709788322449,0.4762378633022309,9.625511169433594,0.0,0.0,0.0,0.0,0.0,0.0,0.0,0.0,0.0
2026/06/04 15:16:52.741967219,1780597012,741135663,imu_link,-0.04941897839307785,0.07179175317287445,0.6398754119873047,0.7635205388069154,0.0,0.0,0.0,0.0,0.0,0.0,0.0,0.0,0.0,-0.002682209014892578,0.00883117411285639,0.0016666949959471824,0.0,0.0,0.0,0.0,0.0,0.0,0.0,0.0,0.0,-1.460215210914612,0.5326635837554932,9.674854278564453,0.0,0.0,0.0,0.0,0.0,0.0,0.0,0.0,0.0
2026/06/04 15:16:52.742488533,1780597012,741151397,imu_link,-0.04942911118268967,0.07180215418338776,0.6398855447769165,0.7635104060173036,0.0,0.0,0.0,0.0,0.0,0.0,0.0,0.0,0.0,-0.0018611550331115723,0.011713058687746527,0.011197477579116821,0.0,0.0,0.0,0.0,0.0,0.0,0.0,0.0,0.0,-1.489220142364502,0.4885874688625336,9.760958671569826,0.0,0.0,0.0,0.0,0.0,0.0,0.0,0.0,0.0
2026/06/04 15:16:52.742922747,1780597012,741176543,imu_link,-0.04944029077887536,0.07181021571159363,0.6398960947990419,0.7634997367858887,0.0,0.0,0.0,0.0,0.0,0.0,0.0,0.0,0.0,-0.010110438801348211,0.013729185797274114,0.008834153413772583,0.0,0.0,0.0,0.0,0.0,0.0,0.0,0.0,0.0,-1.616065263748169,0.36445051431655884,9.747817039489748,0.0,0.0,0.0,0.0,0.0,0.0,0.0,0.0,0.0
2026/06/04 15:16:52.753636210,1780597012,753069134,imu_link,-0.04945636913180352,0.07181549072265625,0.6398927569389344,0.7635010480880737,0.0,0.0,0.0,0.0,0.0,0.0,0.0,0.0,0.0,-0.0068962578661739835,0.011508911848068237,-0.0033915045205503707,0.0,0.0,0.0,0.0,0.0,0.0,0.0,0.0,0.0,-1.790351748466492,0.1861175298690796,9.719013214111328,0.0,0.0,0.0,0.0,0.0,0.0,0.0,0.0,0.0
2026/06/04 15:16:52.754321754,1780597012,753113933,imu_link,-0.049466222524642944,0.07181414216756822,0.6399024724960327,0.7634923458099365,0.0,0.0,0.0,0.0,0.0,0.0,0.0,0.0,0.0,-0.007626414764672519,0.0043295323848724365,0.009769946336746216,0.0,0.0,0.0,0.0,0.0,0.0,0.0,0.0,0.0,-1.7029587030410769,0.12822155654430392,9.681161880493164,0.0,0.0,0.0,0.0,0.0,0.0,0.0,0.0,0.0
2026/06/04 15:16:52.754888858,1780597012,753163899,imu_link,-0.04947434365749359,0.07180966436862946,0.6399213075637817,0.7634764909744263,0.0,0.0,0.0,0.0,0.0,0.0,0.0,0.0,0.0,-0.008980930782854559,0.001580268144607544,0.018990786746144298,0.0,0.0,0.0,0.0,0.0,0.0,0.0,0.0,0.0,-1.746309518814087,0.042899079620838165,9.726447105407717,0.0,0.0,0.0,0.0,0.0,0.0,0.0,0.0,0.0
2026/06/04 15:16:52.755411927,1780597012,753197338,imu_link,-0.04945731163024902,0.07181834429502489,0.6397911310195923,0.7635861039161683,0.0,0.0,0.0,0.0,0.0,0.0,0.0,0.0,0.0,-0.0022351744119077925,0.0002466142468620092,-0.004653632640838623,0.0,0.0,0.0,0.0,0.0,0.0,0.0,0.0,0.0,-1.8301311731338503,0.023313539102673534,9.669373512268068,0.0,0.0,0.0,0.0,0.0,0.0,0.0,0.0,0.0
2026/06/04 15:16:52.755916625,1780597012,753224148,imu_link,-0.04945843666791916,0.07181087136268616,0.6397852897644043,0.7635915875434877,0.0,0.0,0.0,0.0,0.0,0.0,0.0,0.0,0.0,-0.003974140156060458,-0.004073977470397949,-0.006723404396325351,0.0,0.0,0.0,0.0,0.0,0.0,0.0,0.0,0.0,-1.7073843479156494,-0.009589496068656446,9.620088577270508,0.0,0.0,0.0,0.0,0.0,0.0,0.0,0.0,0.0
2026/06/04 15:16:52.763570101,1780597012,762961275,imu_link,-0.04944697022438049,0.07180531322956085,0.6397970914840698,0.76358300447464,0.0,0.0,0.0,0.0,0.0,0.0,0.0,0.0,0.0,0.003127009142190218,-0.009235740639269354,0.01203641574829817,0.0,0.0,0.0,0.0,0.0,0.0,0.0,0.0,0.0,-1.5833542346954346,0.02675396762788296,9.5893030166626,0.0,0.0,0.0,0.0,0.0,0.0,0.0,0.0,0.0
2026/06/04 15:16:52.764149181,1780597012,763000450,imu_link,-0.04943696036934853,0.07180464267730713,0.6398085355758667,0.7635741233825684,0.0,0.0,0.0,0.0,0.0,0.0,0.0,0.0,0.0,0.004746765363961459,-0.005474685691297054,0.01207664702087641,0.0,0.0,0.0,0.0,0.0,0.0,0.0,0.0,0.0,-1.689849853515625,0.046632587909698486,9.588312149047852,0.0,0.0,0.0,0.0,0.0,0.0,0.0,0.0,0.0
2026/06/04 15:16:52.764715163,1780597012,763029080,imu_link,-0.04940136149525643,0.07181898504495622,0.6395816802978516,0.7637649178504945,0.0,0.0,0.0,0.0,0.0,0.0,0.0,0.0,0.0,0.00507161021232605,-0.005388258956372738,-0.010204316116869451,0.0,0.0,0.0,0.0,0.0,0.0,0.0,0.0,0.0,-1.7642925977706911,0.17209500074386597,9.54322624206543,0.0,0.0,0.0,0.0,0.0,0.0,0.0,0.0,0.0
2026/06/04 15:16:52.765195674,1780597012,763078798,imu_link,-0.04939114302396774,0.07181905210018158,0.639581859111786,0.7637655138969422,0.0,0.0,0.0,0.0,0.0,0.0,0.0,0.0,0.0,0.006272643804550171,-0.0052243475802242765,0.0004239380359649658,0.0,0.0,0.0,0.0,0.0,0.0,0.0,0.0,0.0,-1.6219805479049685,0.315125048160553,9.471647262573242,0.0,0.0,0.0,0.0,0.0,0.0,0.0,0.0,0.0
2026/06/04 15:16:52.774291534,1780597012,773755853,imu_link,-0.04938104748725891,0.07181918621063232,0.6395937800407411,0.7637561559677124,0.0,0.0,0.0,0.0,0.0,0.0,0.0,0.0,0.0,0.005162506364285946,-0.005021691787987948,0.0126741835847497,0.0,0.0,0.0,0.0,0.0,0.0,0.0,0.0,0.0,-1.5239331722259521,0.4530948102474213,9.510888099670412,0.0,0.0,0.0,0.0,0.0,0.0,0.0,0.0,0.0
2026/06/04 15:16:52.774765315,1780597012,773798451,imu_link,-0.049379028379917145,0.07182426005601884,0.6395949125289917,0.7637548446655273,0.0,0.0,0.0,0.0,0.0,0.0,0.0,0.0,0.0,0.003691762918606401,0.002095848321914673,0.001714378711767495,0.0,0.0,0.0,0.0,0.0,0.0,0.0,0.0,0.0,-1.5830520391464236,0.5291460752487183,9.582744598388672,0.0,0.0,0.0,0.0,0.0,0.0,0.0,0.0,0.0
2026/06/04 15:16:52.775218077,1780597012,773824863,imu_link,-0.04937220737338067,0.07182744890451433,0.6395475268363954,0.7637944817543031,0.0,0.0,0.0,0.0,0.0,0.0,0.0,0.0,0.0,-0.005638599861413241,0.0016905368538573386,0.0044889748096466064,0.0,0.0,0.0,0.0,0.0,0.0,0.0,0.0,0.0,-1.5477517843246462,0.6265171766281128,9.633353233337404,0.0,0.0,0.0,0.0,0.0,0.0,0.0,0.0,0.0
2026/06/04 15:16:52.775646727,1780597012,773851619,imu_link,-0.049385342746973045,0.0718253180384636,0.6395544409751893,0.7637880444526673,0.0,0.0,0.0,0.0,0.0,0.0,0.0,0.0,0.0,-0.009781122207641602,0.005517155397683383,0.00668987724930048,0.0,0.0,0.0,0.0,0.0,0.0,0.0,0.0,0.0,-1.505451798439026,0.5779996514320375,9.742801666259766,0.0,0.0,0.0,0.0,0.0,0.0,0.0,0.0,0.0
2026/06/04 15:16:52.785159756,1780597012,784560209,imu_link,-0.049405068159103394,0.07182698696851732,0.6395573019981385,0.7637841701507568,0.0,0.0,0.0,0.0,0.0,0.0,0.0,0.0,0.0,-0.011536479927599432,0.011219829320907593,0.0027082860469818115,0.0,0.0,0.0,0.0,0.0,0.0,0.0,0.0,0.0,-1.5705678462982178,0.40349048376083374,9.779206275939943,0.0,0.0,0.0,0.0,0.0,0.0,0.0,0.0,0.0
2026/06/04 15:16:52.785726476,1780597012,784654324,imu_link,-0.04942462593317032,0.07182769477367401,0.639560341835022,0.7637802958488465,0.0,0.0,0.0,0.0,0.0,0.0,0.0,0.0,0.0,-0.011935831047594549,0.01054331660270691,0.0027783217374235396,0.0,0.0,0.0,0.0,0.0,0.0,0.0,0.0,0.0,-1.7250478267669678,0.2746879458427429,9.790884017944336,0.0,0.0,0.0,0.0,0.0,0.0,0.0,0.0,0.0
2026/06/04 15:16:52.786317774,1780597012,784700493,imu_link,-0.04943495988845825,0.0718260407447815,0.6395797729492188,0.7637637853622437,0.0,0.0,0.0,0.0,0.0,0.0,0.0,0.0,0.0,-0.015564265660941603,0.007455796469002963,0.016815215349197388,0.0,0.0,0.0,0.0,0.0,0.0,0.0,0.0,0.0,-1.8654208183288574,0.1228175163269043,9.77270030975342,0.0,0.0,0.0,0.0,0.0,0.0,0.0,0.0,0.0
2026/06/04 15:16:52.786877041,1780597012,784730923,imu_link,-0.04944468289613724,0.07181698083877563,0.6395868062973022,0.7637581825256348,0.0,0.0,0.0,0.0,0.0,0.0,0.0,0.0,0.0,-0.011217595078051092,-0.0005140900611877441,0.006230921018868686,0.0,0.0,0.0,0.0,0.0,0.0,0.0,0.0,0.0,-2.011381149291992,0.04193316400051117,9.785180091857912,0.0,0.0,0.0,0.0,0.0,0.0,0.0,0.0,0.0
2026/06/04 15:16:52.797083435,1780597012,796482846,imu_link,-0.04944996908307076,0.07180240005254747,0.6395812034606934,0.7637639045715332,0.0,0.0,0.0,0.0,0.0,0.0,0.0,0.0,0.0,-0.010153649374842644,-0.00631362246349454,-0.007240474689751864,0.0,0.0,0.0,0.0,0.0,0.0,0.0,0.0,0.0,-1.9342299699783327,-0.05154358223080636,9.792356491088867,0.0,0.0,0.0,0.0,0.0,0.0,0.0,0.0,0.0
2026/06/04 15:16:52.797666951,1780597012,796581808,imu_link,-0.04944659769535065,0.07178943604230882,0.6395870447158813,0.7637605071067811,0.0,0.0,0.0,0.0,0.0,0.0,0.0,0.0,0.0,-0.0050649051554501065,-0.009682774543762207,0.005017966497689486,0.0,0.0,0.0,0.0,0.0,0.0,0.0,0.0,0.0,-1.8237620592117312,-0.05889467895030975,9.756585121154787,0.0,0.0,0.0,0.0,0.0,0.0,0.0,0.0,0.0
2026/06/04 15:16:52.798221538,1780597012,796629422,imu_link,-0.04943544790148736,0.07177616655826569,0.6396035552024842,0.7637485265731812,0.0,0.0,0.0,0.0,0.0,0.0,0.0,0.0,0.0,-0.007852911949157715,-0.01103728823363781,0.013523549772799017,0.0,0.0,0.0,0.0,0.0,0.0,0.0,0.0,0.0,-1.810044765472412,-0.016699641942977905,9.71610736846924,0.0,0.0,0.0,0.0,0.0,0.0,0.0,0.0,0.0
2026/06/04 15:16:52.798754608,1780597012,796670928,imu_link,-0.0494302436709404,0.07176680862903595,0.6396096348762513,0.7637446522712709,0.0,0.0,0.0,0.0,0.0,0.0,0.0,0.0,0.0,-0.002130866050720215,-0.008398295380175115,0.005649775266647339,0.0,0.0,0.0,0.0,0.0,0.0,0.0,0.0,0.0,-1.9117481708526611,0.004815653897821903,9.620015144348146,0.0,0.0,0.0,0.0,0.0,0.0,0.0,0.0,0.0
2026/06/04 15:16:52.799307132,1780597012,796711828,imu_link,-0.049419004470109947,0.07175499945878984,0.6396068334579468,0.7637488842010498,0.0,0.0,0.0,0.0,0.0,0.0,0.0,0.0,0.0,0.0011362136574462058,-0.01309514045715332,-0.0036910176277160645,0.0,0.0,0.0,0.0,0.0,0.0,0.0,0.0,0.0,-1.7756677865982058,0.08412484079599382,9.557233810424805,0.0,0.0,0.0,0.0,0.0,0.0,0.0,0.0,0.0
2026/06/04 15:16:52.806656421,1780597012,806192380,imu_link,-0.049402691423892975,0.07174270600080492,0.6396108865737915,0.7637477517127992,0.0,0.0,0.0,0.0,0.0,0.0,0.0,0.0,0.0,0.003384798998013139,-0.015951693058013916,0.0034831466618925337,0.0,0.0,0.0,0.0,0.0,0.0,0.0,0.0,0.0,-1.6591538190841677,0.18703930079936984,9.55380630493164,0.0,0.0,0.0,0.0,0.0,0.0,0.0,0.0,0.0
2026/06/04 15:16:52.807156738,1780597012,806237197,imu_link,-0.04937886446714401,0.07173612713813782,0.639618217945099,0.7637436389923096,0.0,0.0,0.0,0.0,0.0,0.0,0.0,0.0,0.0,0.0044323508627712735,-0.013726950623095037,0.004879385232925415,0.0,0.0,0.0,0.0,0.0,0.0,0.0,0.0,0.0,-1.5804089307785036,0.29383254051208496,9.513309478759766,0.0,0.0,0.0,0.0,0.0,0.0,0.0,0.0,0.0
2026/06/04 15:16:52.807590755,1780597012,806264446,imu_link,-0.049366962164640434,0.07173041999340057,0.6396270990371704,0.7637374997138978,0.0,0.0,0.0,0.0,0.0,0.0,0.0,0.0,0.0,0.0035859644412994385,-0.009579957462847235,0.009004026651382446,0.0,0.0,0.0,0.0,0.0,0.0,0.0,0.0,0.0,-1.5289064645767214,0.46882694959640503,9.525975227355959,0.0,0.0,0.0,0.0,0.0,0.0,0.0,0.0,0.0
2026/06/04 15:16:52.808032457,1780597012,806290384,imu_link,-0.04936419427394867,0.07171719521284105,0.6396309733390809,0.7637356519699097,0.0,0.0,0.0,0.0,0.0,0.0,0.0,0.0,0.0,-0.005382299888879062,-0.009544193744659424,0.0029377639293670654,0.0,0.0,0.0,0.0,0.0,0.0,0.0,0.0,0.0,-1.4615362882614138,0.5155099630355835,9.561246871948242,0.0,0.0,0.0,0.0,0.0,0.0,0.0,0.0,0.0
2026/06/04 15:16:52.818465217,1780597012,818049845,imu_link,-0.04937294498085976,0.07170657068490983,0.639629900455475,0.7637369632720947,0.0,0.0,0.0,0.0,0.0,0.0,0.0,0.0,0.0,-0.01068413257598877,-0.002047419780865312,-0.0022530555725097656,0.0,0.0,0.0,0.0,0.0,0.0,0.0,0.0,0.0,-1.3177173137664795,0.5529860258102417,9.617565155029297,0.0,0.0,0.0,0.0,0.0,0.0,0.0,0.0,0.0
2026/06/04 15:16:52.818812726,1780597012,818088253,imu_link,-0.04936670884490014,0.07171081006526947,0.6395500898361206,0.7638037204742432,0.0,0.0,0.0,0.0,0.0,0.0,0.0,0.0,0.0,-0.007802248466759921,0.0025816264096647505,0.001173466444015503,0.0,0.0,0.0,0.0,0.0,0.0,0.0,0.0,0.0,-1.2483248710632324,0.5514684915542603,9.640481948852539,0.0,0.0,0.0,0.0,0.0,0.0,0.0,0.0,0.0
2026/06/04 15:16:52.819133790,1780597012,818103468,imu_link,-0.049383893609046936,0.07171094417572021,0.6395668983459473,0.7637885808944702,0.0,0.0,0.0,0.0,0.0,0.0,0.0,0.0,0.0,-0.01201331615447998,0.009078533388674261,0.01705065369606018,0.0,0.0,0.0,0.0,0.0,0.0,0.0,0.0,0.0,-1.3310050964355469,0.44329679012298584,9.6571044921875,0.0,0.0,0.0,0.0,0.0,0.0,0.0,0.0,0.0
2026/06/04 15:16:52.819466655,1780597012,818118533,imu_link,-0.049402173608541496,0.07171506434679033,0.639574944972992,0.7637802958488465,0.0,0.0,0.0,0.0,0.0,0.0,0.0,0.0,0.0,-0.009864569641649725,0.012027470394968987,0.008257478475570679,0.0,0.0,0.0,0.0,0.0,0.0,0.0,0.0,0.0,-1.571270823478699,0.32547450065612793,9.638580322265625,0.0,0.0,0.0,0.0,0.0,0.0,0.0,0.0,0.0
2026/06/04 15:16:52.819765583,1780597012,818134908,imu_link,-0.049422081559896476,0.07171496748924255,0.6395699977874756,0.7637832164764404,0.0,0.0,0.0,0.0,0.0,0.0,0.0,0.0,0.0,-0.011833012104034424,0.010154397226870062,-0.005616246722638607,0.0,0.0,0.0,0.0,0.0,0.0,0.0,0.0,0.0,-1.5869929790496826,0.16110336780548096,9.591043472290039,0.0,0.0,0.0,0.0,0.0,0.0,0.0,0.0,0.0
2026/06/04 15:16:52.828064121,1780597012,827690144,imu_link,-0.0494464710354805,0.07170355319976807,0.6397011876106263,0.7636728882789613,0.0,0.0,0.0,0.0,0.0,0.0,0.0,0.0,0.0,-0.018261374905705455,0.007946045137941839,0.007910281419754028,0.0,0.0,0.0,0.0,0.0,0.0,0.0,0.0,0.0,-1.4807448387145996,0.052210617810487754,9.586069107055664,0.0,0.0,0.0,0.0,0.0,0.0,0.0,0.0,0.0
2026/06/04 15:16:52.828456842,1780597012,827715044,imu_link,-0.04946097731590271,0.07170716673135759,0.6397147178649902,0.7636602520942689,0.0,0.0,0.0,0.0,0.0,0.0,0.0,0.0,0.0,-0.00830292794853449,0.009816139936447144,0.014037639833986761,0.0,0.0,0.0,0.0,0.0,0.0,0.0,0.0,0.0,-1.4634844064712527,-0.06499798595905304,9.610711097717287,0.0,0.0,0.0,0.0,0.0,0.0,0.0,0.0,0.0
2026/06/04 15:16:52.828807318,1780597012,827730637,imu_link,-0.04947582259774209,0.07171260565519334,0.6397159695625306,0.7636577486991883,0.0,0.0,0.0,0.0,0.0,0.0,0.0,0.0,0.0,-0.006470085587352515,0.011014193296432495,0.0013776123523712158,0.0,0.0,0.0,0.0,0.0,0.0,0.0,0.0,0.0,-1.5534421205520632,-0.08278554677963257,9.583690643310547,0.0,0.0,0.0,0.0,0.0,0.0,0.0,0.0,0.0
2026/06/04 15:16:52.829140008,1780597012,827744379,imu_link,-0.049486324191093445,0.07171931862831116,0.6397113800048828,0.7636603116989136,0.0,0.0,0.0,0.0,0.0,0.0,0.0,0.0,0.0,-0.002633035648614168,0.009510668925940992,-0.004422665573656559,0.0,0.0,0.0,0.0,0.0,0.0,0.0,0.0,0.0,-1.5041466951370241,-0.07422763854265214,9.54397964477539,0.0,0.0,0.0,0.0,0.0,0.0,0.0,0.0,0.0
2026/06/04 15:16:52.838786315,1780597012,838522036,imu_link,-0.04948591813445092,0.07172985374927521,0.6397252678871156,0.7636476755142212,0.0,0.0,0.0,0.0,0.0,0.0,0.0,0.0,0.0,-0.002047419548034668,0.009591132402420044,0.012656302191317083,0.0,0.0,0.0,0.0,0.0,0.0,0.0,0.0,0.0,-1.4301227331161501,-0.0867401883006096,9.524811744689943,0.0,0.0,0.0,0.0,0.0,0.0,0.0,0.0,0.0
2026/06/04 15:16:52.839122359,1780597012,838545070,imu_link,-0.04949430376291275,0.07174946367740631,0.6397305727005005,0.7636408805847168,0.0,0.0,0.0,0.0,0.0,0.0,0.0,0.0,0.0,0.004320591688156128,0.016451628878712658,0.007054954767227173,0.0,0.0,0.0,0.0,0.0,0.0,0.0,0.0,0.0,-1.5787936449050906,-0.06705604493618011,9.486038208007812,0.0,0.0,0.0,0.0,0.0,0.0,0.0,0.0,0.0
2026/06/04 15:16:52.839270856,1780597012,838553158,imu_link,-0.04950105398893356,0.07177148014307023,0.6397289037704468,0.7636396884918213,0.0,0.0,0.0,0.0,0.0,0.0,0.0,0.0,0.0,0.007177144754678012,0.017032772302627563,5.4389238357543945e-05,0.0,0.0,0.0,0.0,0.0,0.0,0.0,0.0,0.0,-1.6427255868911745,0.09568061679601671,9.469676017761232,0.0,0.0,0.0,0.0,0.0,0.0,0.0,0.0,0.0
2026/06/04 15:16:52.839483817,1780597012,838560322,imu_link,-0.04950482770800591,0.07179662585258484,0.6397373676300049,0.763629972934723,0.0,0.0,0.0,0.0,0.0,0.0,0.0,0.0,0.0,0.009668618440628052,0.017511101439595226,0.010962039232254028,0.0,0.0,0.0,0.0,0.0,0.0,0.0,0.0,0.0,-1.6300935745239258,0.32228258252143865,9.507791519165039,0.0,0.0,0.0,0.0,0.0,0.0,0.0,0.0,0.0
2026/06/04 15:16:52.850519609,1780597012,850316997,imu_link,-0.04950357601046563,0.07182671874761583,0.639741599559784,0.7636235356330873,0.0,0.0,0.0,0.0,0.0,0.0,0.0,0.0,0.0,0.009609013795852661,0.021260231733322144,0.004392117727547885,0.0,0.0,0.0,0.0,0.0,0.0,0.0,0.0,0.0,-1.643540382385254,0.438770741224289,9.54856586456299,0.0,0.0,0.0,0.0,0.0,0.0,0.0,0.0,0.0
2026/06/04 15:16:52.850764962,1780597012,850334865,imu_link,-0.049519401043653495,0.07185523211956024,0.639734148979187,0.7636260986328125,0.0,0.0,0.0,0.0,0.0,0.0,0.0,0.0,0.0,0.00543817924335599,0.025663528591394424,-0.005631150212138892,0.0,0.0,0.0,0.0,0.0,0.0,0.0,0.0,0.0,-1.6868643760681152,0.5501864552497865,9.621527671813967,0.0,0.0,0.0,0.0,0.0,0.0,0.0,0.0,0.0
2026/06/04 15:16:52.850996942,1780597012,850342752,imu_link,-0.04953808709979058,0.07187643647193909,0.6397419571876527,0.7636163830757142,0.0,0.0,0.0,0.0,0.0,0.0,0.0,0.0,0.0,-0.0014171007787808778,0.02276972308754921,0.009561331942677498,0.0,0.0,0.0,0.0,0.0,0.0,0.0,0.0,0.0,-1.5627523660659792,0.6626873016357422,9.736713409423828,0.0,0.0,0.0,0.0,0.0,0.0,0.0,0.0,0.0
2026/06/04 15:16:52.851185971,1780597012,850349949,imu_link,-0.04956383258104324,0.07189531624317169,0.6397597789764404,0.7635980248451234,0.0,0.0,0.0,0.0,0.0,0.0,0.0,0.0,0.0,-0.007838011719286444,0.02505556121468544,0.01957044564187527,0.0,0.0,0.0,0.0,0.0,0.0,0.0,0.0,0.0,-1.6465104818344118,0.5970784425735474,9.846477508544922,0.0,0.0,0.0,0.0,0.0,0.0,0.0,0.0,0.0
2026/06/04 15:16:52.851406013,1780597012,850356663,imu_link,-0.049584116786718375,0.07192087173461914,0.6396689414978027,0.7636705636978149,0.0,0.0,0.0,0.0,0.0,0.0,0.0,0.0,0.0,-0.013384224846959114,0.030065331608057022,-0.0028684742283076052,0.0,0.0,0.0,0.0,0.0,0.0,0.0,0.0,0.0,-1.9315555095672607,0.4537234008312226,9.890069007873537,0.0,0.0,0.0,0.0,0.0,0.0,0.0,0.0,0.0
2026/06/04 15:16:52.861264073,1780597012,861086096,imu_link,-0.04961416870355606,0.07192936539649963,0.6396674513816835,0.7636690139770508,0.0,0.0,0.0,0.0,0.0,0.0,0.0,0.0,0.0,-0.014011561870574951,0.020708886906504635,-0.001464783912524581,0.0,0.0,0.0,0.0,0.0,0.0,0.0,0.0,0.0,-2.0172219276428223,0.31357353925704956,9.843184471130373,0.0,0.0,0.0,0.0,0.0,0.0,0.0,0.0,0.0
2026/06/04 15:16:52.861562639,1780597012,861107702,imu_link,-0.04963231831789017,0.07193226367235185,0.6396868228912354,0.7636513113975526,0.0,0.0,0.0,0.0,0.0,0.0,0.0,0.0,0.0,-0.011444092728197576,0.01130327582359314,0.02001449465751648,0.0,0.0,0.0,0.0,0.0,0.0,0.0,0.0,0.0,-2.1491634845733647,0.10537371039390564,9.847296714782717,0.0,0.0,0.0,0.0,0.0,0.0,0.0,0.0,0.0
2026/06/04 15:16:52.861823361,1780597012,861117476,imu_link,-0.049641858786344535,0.07193113118410112,0.6396976113319398,0.7636417150497437,0.0,0.0,0.0,0.0,0.0,0.0,0.0,0.0,0.0,-0.007423758506774902,0.004313141573220492,0.010860711336135864,0.0,0.0,0.0,0.0,0.0,0.0,0.0,0.0,0.0,-2.3182015419006348,0.040959220379590995,9.873294830322266,0.0,0.0,0.0,0.0,0.0,0.0,0.0,0.0,0.0
2026/06/04 15:16:52.862085382,1780597012,861126183,imu_link,-0.04962281882762909,0.07193484157323839,0.6395295858383179,0.7637832164764404,0.0,0.0,0.0,0.0,0.0,0.0,0.0,0.0,0.0,-0.0067561869509518155,-0.0034958126489073042,-0.006462634541094303,0.0,0.0,0.0,0.0,0.0,0.0,0.0,0.0,0.0,-2.3528416156768803,-0.08017054200172424,9.883661270141602,0.0,0.0,0.0,0.0,0.0,0.0,0.0,0.0,0.0
2026/06/04 15:16:52.871978249,1780597012,871750763,imu_link,-0.04960890486836434,0.07191604375839233,0.6395317316055298,0.7637840509414673,0.0,0.0,0.0,0.0,0.0,0.0,0.0,0.0,0.0,-0.0012263656826689842,-0.018739700317382812,0.0009573996649123729,0.0,0.0,0.0,0.0,0.0,0.0,0.0,0.0,0.0,-2.1668097972869877,-0.021649653092026714,9.874421119689943,0.0,0.0,0.0,0.0,0.0,0.0,0.0,0.0,0.0
2026/06/04 15:16:52.872250377,1780597012,871770016,imu_link,-0.0495888888835907,0.07188716530799866,0.6395446658134462,0.7637771368026733,0.0,0.0,0.0,0.0,0.0,0.0,0.0,0.0,0.0,-0.0035837294999510054,-0.02801269292831421,0.011470168828964233,0.0,0.0,0.0,0.0,0.0,0.0,0.0,0.0,0.0,-1.997707009315491,0.023691296577453613,9.894439697265625,0.0,0.0,0.0,0.0,0.0,0.0,0.0,0.0,0.0
